SubNo TrialNo Mapping WhiteProp State Resp Acc Reward Balance ReactionTime
8 1 1 0.4832 0 0 1 10 10 1250
8 2 1 0.5166 1 1 1 10 20 1816
8 3 1 0.4832 0 1 0 0 20 1383
8 4 1 0.5166 1 0 0 0 20 2933
8 5 1 0.5166 1 0 0 0 20 1783
8 6 1 0.5166 1 1 1 10 30 550
8 7 1 0.5166 1 1 1 10 40 2883
8 8 1 0.4832 0 1 0 0 40 1050
8 9 1 0.5166 1 1 1 10 50 2700
8 10 1 0.5166 1 1 1 10 60 2366
8 11 1 0.5166 1 1 1 10 70 1083
8 12 1 0.5166 1 1 1 10 80 800
8 13 1 0.4832 0 1 0 0 80 1016
8 14 1 0.4832 0 1 0 0 80 1166
8 15 1 0.4832 0 0 1 10 90 750
8 16 1 0.4832 0 0 1 10 100 850
8 17 1 0.5166 1 0 0 0 100 1466
8 18 1 0.5166 1 0 0 0 100 1600
8 19 1 0.4832 0 1 0 0 100 750
8 20 1 0.4832 0 1 0 0 100 1900
8 21 1 0.4832 0 1 0 0 100 1750
8 22 1 0.4832 0 0 1 10 110 733
8 23 1 0.5166 1 1 1 10 120 1483
8 24 1 0.5166 1 0 0 0 120 2250
8 25 1 0.5166 1 1 1 10 130 566
8 26 1 0.4832 0 1 0 0 130 666
8 27 1 0.4832 0 1 0 0 130 1133
8 28 1 0.5166 1 1 1 10 140 1850
8 29 1 0.5166 1 1 1 10 150 1066
8 30 1 0.5166 1 1 1 10 160 1950
8 31 1 0.4832 0 0 1 10 170 1916
8 32 1 0.4832 0 0 1 10 180 1600
8 33 1 0.4832 0 0 1 10 190 550
8 34 1 0.5166 1 1 1 10 200 1533
8 35 1 0.5166 1 1 1 10 210 766
8 36 1 0.4832 0 0 1 10 220 1316
8 37 1 0.5166 1 0 0 0 220 633
8 38 1 0.4832 0 1 0 0 220 1983
8 39 1 0.5166 1 1 1 10 230 1550
8 40 1 0.4832 0 0 1 10 240 716
8 41 1 0.5166 1 1 1 10 250 1516
8 42 1 0.5166 1 1 1 10 260 1433
8 43 1 0.5166 1 1 1 10 270 883
8 44 1 0.4832 0 1 0 0 270 3533
8 45 1 0.5166 1 1 1 10 280 3850
8 46 1 0.5166 1 1 1 10 290 800
8 47 1 0.5166 1 1 1 10 300 1800
8 48 1 0.4832 0 0 1 10 310 566
8 49 1 0.4832 0 0 1 10 320 850
8 50 1 0.5166 1 0 0 0 320 2800
8 51 1 0.5166 1 0 0 0 320 1150
8 52 1 0.4832 0 1 0 0 320 716
8 53 1 0.5166 1 1 1 10 330 1600
8 54 1 0.4832 0 0 1 10 340 1566
8 55 1 0.4832 0 0 1 10 350 1750
8 56 1 0.4832 0 0 1 10 360 983
8 57 1 0.5166 1 1 1 10 370 800
8 58 1 0.4832 0 0 1 10 380 1250
8 59 1 0.5166 1 1 1 10 390 1450
8 60 1 0.4832 0 0 1 10 400 2366
8 61 1 0.5166 1 0 0 0 400 1150
8 62 1 0.4832 0 1 0 0 400 1166
8 63 1 0.5166 1 1 1 10 410 983
8 64 1 0.4832 0 1 0 0 410 1600
8 65 1 0.4832 0 0 1 10 420 1100
8 66 1 0.4832 0 0 1 10 430 700
8 67 1 0.4832 0 0 1 10 440 766
8 68 1 0.4832 0 0 1 10 450 2116
8 69 1 0.4832 0 1 0 0 450 533
8 70 1 0.4832 0 1 0 0 450 1550
8 71 1 0.4832 0 0 1 10 460 883
8 72 1 0.4832 0 0 1 10 470 983
8 73 1 0.4832 0 0 1 10 480 1150
8 74 1 0.4832 0 0 1 10 490 566
8 75 1 0.4832 0 0 1 10 500 733
8 76 1 0.5166 1 0 0 0 500 633
8 77 1 0.5166 1 1 1 10 510 2550
8 78 1 0.4832 0 1 0 0 510 1250
8 79 1 0.5166 1 1 1 10 520 2200
8 80 1 0.4832 0 1 0 0 520 1366
8 81 1 0.5166 1 0 0 0 520 1916
8 82 1 0.5166 1 1 1 10 530 750
8 83 1 0.4832 0 1 0 0 530 983
8 84 1 0.5166 1 1 1 10 540 3333
8 85 1 0.5166 1 1 1 10 550 1433
8 86 1 0.5166 1 1 1 10 560 966
8 87 1 0.4832 0 1 0 0 560 1150
8 88 1 0.4832 0 0 1 10 570 866
8 89 1 0.4832 0 0 1 10 580 750
8 90 1 0.5166 1 0 0 0 580 1166
8 91 1 0.4832 0 0 1 10 590 650
8 92 1 0.5166 1 1 1 10 600 550
8 93 1 0.5166 1 1 1 10 610 866
8 94 1 0.5166 1 1 1 10 620 783
8 95 1 0.5166 1 1 1 10 630 1600
8 96 1 0.5166 1 1 1 10 640 750
8 97 1 0.4832 0 1 0 0 640 1366
8 98 1 0.4832 0 0 1 10 650 650
8 99 1 0.5166 1 1 1 10 660 2133
8 100 1 0.5166 1 1 1 10 670 900
8 101 0 0.5166 1 1 1 10 680 2216
8 102 0 0.5166 1 1 1 10 690 933
8 103 0 0.5166 1 1 1 10 700 1233
8 104 0 0.4832 0 1 0 0 700 816
8 105 0 0.5166 1 0 0 0 700 1183
8 106 0 0.4832 0 0 1 10 710 1516
8 107 0 0.5166 1 0 0 0 710 1616
8 108 0 0.4832 0 1 0 0 710 1983
8 109 0 0.5166 1 1 1 10 720 1000
8 110 0 0.5166 1 1 1 10 730 900
8 111 0 0.4832 0 1 0 0 730 1517
8 112 0 0.4832 0 0 1 10 740 1800
8 113 0 0.5166 1 1 1 10 750 4016
8 114 0 0.5166 1 1 1 10 760 699
8 115 0 0.5166 1 1 1 10 770 783
8 116 0 0.5166 1 1 1 10 780 883
8 117 0 0.5166 1 1 1 10 790 716
8 118 0 0.5166 1 1 1 10 800 950
8 119 0 0.4832 0 1 0 0 800 933
8 120 0 0.4832 0 0 1 10 810 750
8 121 0 0.4832 0 0 1 10 820 733
8 122 0 0.4832 0 0 1 10 830 766
8 123 0 0.5166 1 1 1 10 840 950
8 124 0 0.5166 1 0 0 0 840 1150
8 125 0 0.4832 0 0 1 10 850 750
8 126 0 0.4832 0 0 1 10 860 733
8 127 0 0.5166 1 0 0 0 860 750
8 128 0 0.4832 0 1 0 0 860 2266
8 129 0 0.5166 1 1 1 10 870 1066
8 130 0 0.5166 1 1 1 10 880 883
8 131 0 0.5166 1 1 1 10 890 1150
8 132 0 0.4832 0 1 0 0 890 833
8 133 0 0.4832 0 0 1 10 900 900
8 134 0 0.4832 0 0 1 10 910 716
8 135 0 0.4832 0 0 1 10 920 816
8 136 0 0.4832 0 0 1 10 930 916
8 137 0 0.4832 0 0 1 10 940 1100
8 138 0 0.4832 0 0 1 10 950 833
8 139 0 0.4832 0 0 1 10 960 566
8 140 0 0.5166 1 0 0 0 960 1166
8 141 0 0.5166 1 0 0 0 960 983
8 142 0 0.4832 0 0 1 10 970 866
8 143 0 0.5166 1 0 0 0 970 750
8 144 0 0.4832 0 1 0 0 970 750
8 145 0 0.4832 0 0 1 10 980 2133
8 146 0 0.5166 1 0 0 0 980 800
8 147 0 0.4832 0 0 1 10 990 1083
8 148 0 0.5166 1 0 0 0 990 683
8 149 0 0.4832 0 0 1 10 1000 1000
8 150 0 0.4832 0 0 1 10 1010 1316
8 151 0 0.4832 0 0 1 10 1020 616
8 152 0 0.4832 0 0 1 10 1030 900
8 153 0 0.4832 0 0 1 10 1040 633
8 154 0 0.5166 1 1 1 10 1050 850
8 155 0 0.4832 0 0 1 10 1060 1166
8 156 0 0.5166 1 1 1 10 1070 3366
8 157 0 0.4832 0 0 1 10 1080 783
8 158 0 0.5166 1 1 1 10 1090 1683
8 159 0 0.5166 1 1 1 10 1100 2233
8 160 0 0.5166 1 1 1 10 1110 1150
8 161 0 0.4832 0 1 0 0 1110 1233
8 162 0 0.5166 1 1 1 10 1120 5183
8 163 0 0.4832 0 1 0 0 1120 1300
8 164 0 0.5166 1 1 1 10 1130 1800
8 165 0 0.4832 0 0 1 10 1140 3216
8 166 0 0.4832 0 0 1 10 1150 950
8 167 0 0.5166 1 0 0 0 1150 666
8 168 0 0.5166 1 1 1 10 1160 2833
8 169 0 0.4832 0 1 0 0 1160 1850
8 170 0 0.5166 1 1 1 10 1170 2500
8 171 0 0.5166 1 1 1 10 1180 5083
8 172 0 0.4832 0 0 1 10 1190 1900
8 173 0 0.5166 1 0 0 0 1190 1466
8 174 0 0.4832 0 0 1 10 1200 4000
8 175 0 0.4832 0 0 1 10 1210 1066
8 176 0 0.4832 0 0 1 10 1220 933
8 177 0 0.4832 0 0 1 10 1230 683
8 178 0 0.5166 1 0 0 0 1230 1500
8 179 0 0.4832 0 0 1 10 1240 1950
8 180 0 0.4832 0 0 1 10 1250 683
8 181 0 0.4832 0 1 0 0 1250 1750
8 182 0 0.5166 1 1 1 10 1260 816
8 183 0 0.5166 1 1 1 10 1270 866
8 184 0 0.4832 0 1 0 0 1270 783
8 185 0 0.5166 1 0 0 0 1270 1366
8 186 0 0.5166 1 1 1 10 1280 783
8 187 0 0.4832 0 1 0 0 1280 1083
8 188 0 0.4832 0 0 1 10 1290 1683
8 189 0 0.4832 0 0 1 10 1300 683
8 190 0 0.5166 1 0 0 0 1300 1050
8 191 0 0.5166 1 0 0 0 1300 1366
8 192 0 0.5166 1 1 1 10 1310 1200
8 193 0 0.5166 1 0 0 0 1310 1666
8 194 0 0.5166 1 1 1 10 1320 1233
8 195 0 0.4832 0 1 0 0 1320 966
8 196 0 0.5166 1 0 0 0 1320 1666
8 197 0 0.4832 0 0 1 10 1330 883
8 198 0 0.5166 1 1 1 10 1340 1066
8 199 0 0.5166 1 1 1 10 1350 1500
8 200 0 0.5166 1 0 0 0 1350 2450
