SubNo TrialNo Mapping WhiteProp State Resp Acc Reward Balance ReactionTime
5 1 0 0.4714 0 1 0 0 0 4568
5 2 0 0.5167 1 1 1 10 10 1349
5 3 0 0.4714 0 1 0 0 10 816
5 4 0 0.4714 0 0 1 10 20 2768
5 5 0 0.5167 1 1 1 10 30 2381
5 6 0 0.4714 0 0 1 10 40 1633
5 7 0 0.4714 0 0 1 10 50 1266
5 8 0 0.4714 0 0 1 10 60 883
5 9 0 0.4714 0 0 1 10 70 500
5 10 0 0.4714 0 0 1 10 80 516
5 11 0 0.4714 0 0 1 10 90 550
5 12 0 0.4714 0 0 1 10 100 633
5 13 0 0.5167 1 1 1 10 110 966
5 14 0 0.4714 0 0 1 10 120 450
5 15 0 0.5167 1 1 1 10 130 816
5 16 0 0.5167 1 1 1 10 140 783
5 17 0 0.5167 1 1 1 10 150 750
5 18 0 0.4714 0 0 1 10 160 650
5 19 0 0.5167 1 1 1 10 170 583
5 20 0 0.4714 0 1 0 0 170 2650
5 21 0 0.5167 1 1 1 10 180 733
5 22 0 0.5167 1 1 1 10 190 716
5 23 0 0.5167 1 1 1 10 200 600
5 24 0 0.4714 0 0 1 10 210 733
5 25 0 0.5167 1 1 1 10 220 1116
5 26 0 0.4714 0 1 0 0 220 1567
5 27 0 0.5167 1 1 1 10 230 750
5 28 0 0.5167 1 1 1 10 240 700
5 29 0 0.4714 0 0 1 10 250 566
5 30 0 0.4714 0 0 1 10 260 516
5 31 0 0.5167 1 1 1 10 270 783
5 32 0 0.5167 1 1 1 10 280 433
5 33 0 0.5167 1 1 1 10 290 566
5 34 0 0.4714 0 0 1 10 300 700
5 35 0 0.4714 0 0 1 10 310 500
5 36 0 0.5167 1 1 1 10 320 666
5 37 0 0.4714 0 0 1 10 330 1016
5 38 0 0.5167 1 1 1 10 340 466
5 39 0 0.5167 1 1 1 10 350 616
5 40 0 0.4714 0 0 1 10 360 500
5 41 0 0.5167 1 1 1 10 370 616
5 42 0 0.5167 1 1 1 10 380 550
5 43 0 0.5167 1 1 1 10 390 533
5 44 0 0.4714 0 0 1 10 400 650
5 45 0 0.5167 1 1 1 10 410 800
5 46 0 0.5167 1 1 1 10 420 516
5 47 0 0.4714 0 0 1 10 430 600
5 48 0 0.5167 1 0 0 0 430 616
5 49 0 0.5167 1 1 1 10 440 750
5 50 0 0.4714 0 0 1 10 450 566
5 51 0 0.5167 1 1 1 10 460 800
5 52 0 0.5167 1 1 1 10 470 783
5 53 0 0.4714 0 0 1 10 480 633
5 54 0 0.4714 0 0 1 10 490 466
5 55 0 0.5167 1 1 1 10 500 483
5 56 0 0.4714 0 0 1 10 510 950
5 57 0 0.4714 0 0 1 10 520 533
5 58 0 0.5167 1 1 1 10 530 666
5 59 0 0.4714 0 1 0 0 530 566
5 60 0 0.5167 1 1 1 10 540 850
5 61 0 0.4714 0 0 1 10 550 516
5 62 0 0.4714 0 0 1 10 560 500
5 63 0 0.5167 1 0 0 0 560 7016
5 64 0 0.5167 1 1 1 10 570 2933
5 65 0 0.4714 0 0 1 10 580 1516
5 66 0 0.4714 0 1 0 0 580 800
5 67 0 0.5167 1 1 1 10 590 533
5 68 0 0.5167 1 1 1 10 600 666
5 69 0 0.4714 0 0 1 10 610 1000
5 70 0 0.5167 1 1 1 10 620 700
5 71 0 0.4714 0 1 0 0 620 1033
5 72 0 0.4714 0 0 1 10 630 650
5 73 0 0.4714 0 0 1 10 640 433
5 74 0 0.4714 0 0 1 10 650 516
5 75 0 0.4714 0 0 1 10 660 550
5 76 0 0.5167 1 0 0 0 660 1166
5 77 0 0.4714 0 1 0 0 660 866
5 78 0 0.5167 1 0 0 0 660 850
5 79 0 0.5167 1 1 1 10 670 1033
5 80 0 0.4714 0 1 0 0 670 1050
5 81 0 0.5167 1 0 0 0 670 1683
5 82 0 0.5167 1 1 1 10 680 733
5 83 0 0.4714 0 1 0 0 680 666
5 84 0 0.5167 1 1 1 10 690 783
5 85 0 0.5167 1 0 0 0 690 1133
5 86 0 0.5167 1 1 1 10 700 900
5 87 0 0.4714 0 0 1 10 710 983
5 88 0 0.5167 1 1 1 10 720 583
5 89 0 0.4714 0 0 1 10 730 616
5 90 0 0.4714 0 0 1 10 740 666
5 91 0 0.4714 0 0 1 10 750 550
5 92 0 0.4714 0 0 1 10 760 750
5 93 0 0.5167 1 0 0 0 760 600
5 94 0 0.4714 0 0 1 10 770 1050
5 95 0 0.5167 1 1 1 10 780 816
5 96 0 0.5167 1 0 0 0 780 1166
5 97 0 0.5167 1 1 1 10 790 766
5 98 0 0.5167 1 1 1 10 800 683
5 99 0 0.4714 0 1 0 0 800 8650
5 100 0 0.4714 0 1 0 0 800 716
5 101 1 0.5167 1 0 0 0 800 583
5 102 1 0.5167 1 1 1 10 810 600
5 103 1 0.5167 1 0 0 0 810 1250
5 104 1 0.5167 1 1 1 10 820 1583
5 105 1 0.5167 1 0 0 0 820 600
5 106 1 0.4714 0 1 0 0 820 1400
5 107 1 0.5167 1 0 0 0 820 3983
5 108 1 0.4714 0 0 1 10 830 2150
5 109 1 0.5167 1 1 1 10 840 566
5 110 1 0.5167 1 1 1 10 850 866
5 111 1 0.4714 0 1 0 0 850 916
5 112 1 0.5167 1 1 1 10 860 883
5 113 1 0.4714 0 1 0 0 860 1583
5 114 1 0.5167 1 1 1 10 870 1866
5 115 1 0.5167 1 1 1 10 880 816
5 116 1 0.4714 0 0 1 10 890 1233
5 117 1 0.5167 1 1 1 10 900 933
5 118 1 0.4714 0 0 1 10 910 683
5 119 1 0.5167 1 1 1 10 920 1233
5 120 1 0.4714 0 0 1 10 930 1533
5 121 1 0.4714 0 0 1 10 940 1700
5 122 1 0.5167 1 1 1 10 950 950
5 123 1 0.5167 1 1 1 10 960 916
5 124 1 0.5167 1 1 1 10 970 1166
5 125 1 0.5167 1 1 1 10 980 650
5 126 1 0.5167 1 1 1 10 990 1066
5 127 1 0.5167 1 1 1 10 1000 550
5 128 1 0.4714 0 0 1 10 1010 633
5 129 1 0.4714 0 0 1 10 1020 716
5 130 1 0.5167 1 1 1 10 1030 633
5 131 1 0.5167 1 1 1 10 1040 750
5 132 1 0.4714 0 0 1 10 1050 916
5 133 1 0.5167 1 1 1 10 1060 800
5 134 1 0.5167 1 1 1 10 1070 1316
5 135 1 0.5167 1 1 1 10 1080 4216
5 136 1 0.4714 0 0 1 10 1090 900
5 137 1 0.4714 0 1 0 0 1090 1750
5 138 1 0.4714 0 0 1 10 1100 1550
5 139 1 0.4714 0 1 0 0 1100 2416
5 140 1 0.4714 0 1 0 0 1100 1150
5 141 1 0.5167 1 0 0 0 1100 733
5 142 1 0.5167 1 1 1 10 1110 766
5 143 1 0.4714 0 1 0 0 1110 533
5 144 1 0.4714 0 0 1 10 1120 766
5 145 1 0.5167 1 1 1 10 1130 783
5 146 1 0.4714 0 0 1 10 1140 483
5 147 1 0.4714 0 0 1 10 1150 866
5 148 1 0.4714 0 0 1 10 1160 933
5 149 1 0.4714 0 0 1 10 1170 1466
5 150 1 0.4714 0 0 1 10 1180 583
5 151 1 0.4714 0 0 1 10 1190 516
5 152 1 0.5167 1 1 1 10 1200 1150
5 153 1 0.5167 1 1 1 10 1210 1033
5 154 1 0.4714 0 1 0 0 1210 1000
5 155 1 0.4714 0 1 0 0 1210 983
5 156 1 0.4714 0 1 0 0 1210 883
5 157 1 0.4714 0 1 0 0 1210 1333
5 158 1 0.4714 0 1 0 0 1210 1616
5 159 1 0.4714 0 1 0 0 1210 516
5 160 1 0.5167 1 1 1 10 1220 1450
5 161 1 0.4714 0 1 0 0 1220 2800
5 162 1 0.5167 1 1 1 10 1230 716
5 163 1 0.4714 0 0 1 10 1240 1300
5 164 1 0.5167 1 1 1 10 1250 850
5 165 1 0.5167 1 0 0 0 1250 1466
5 166 1 0.5167 1 1 1 10 1260 1300
5 167 1 0.5167 1 1 1 10 1270 550
5 168 1 0.4714 0 0 1 10 1280 750
5 169 1 0.4714 0 0 1 10 1290 933
5 170 1 0.5167 1 1 1 10 1300 3683
5 171 1 0.5167 1 0 0 0 1300 1450
5 172 1 0.5167 1 1 1 10 1310 650
5 173 1 0.4714 0 0 1 10 1320 650
5 174 1 0.5167 1 0 0 0 1320 3133
5 175 1 0.4714 0 1 0 0 1320 1666
5 176 1 0.5167 1 0 0 0 1320 783
5 177 1 0.4714 0 1 0 0 1320 616
5 178 1 0.5167 1 1 1 10 1330 983
5 179 1 0.5167 1 1 1 10 1340 1166
5 180 1 0.5167 1 1 1 10 1350 633
5 181 1 0.4714 0 1 0 0 1350 533
5 182 1 0.4714 0 0 1 10 1360 700
5 183 1 0.4714 0 0 1 10 1370 766
5 184 1 0.5167 1 1 1 10 1380 866
5 185 1 0.5167 1 1 1 10 1390 1366
5 186 1 0.4714 0 0 1 10 1400 1716
5 187 1 0.4714 0 0 1 10 1410 816
5 188 1 0.4714 0 0 1 10 1420 850
5 189 1 0.5167 1 1 1 10 1430 783
5 190 1 0.4714 0 0 1 10 1440 683
5 191 1 0.4714 0 1 0 0 1440 1250
5 192 1 0.5167 1 1 1 10 1450 1083
5 193 1 0.4714 0 0 1 10 1460 633
5 194 1 0.5167 1 1 1 10 1470 1666
5 195 1 0.5167 1 1 1 10 1480 1916
5 196 1 0.5167 1 1 1 10 1490 1216
5 197 1 0.4714 0 0 1 10 1500 850
5 198 1 0.4714 0 0 1 10 1510 666
5 199 1 0.4714 0 1 0 0 1510 983
5 200 1 0.4714 0 1 0 0 1510 1116
