SubNo TrialNo Mapping State Resp Acc Reward Balance ReactionTime
5 1 1 0 1 0 0 0 3350
5 2 1 1 1 1 10 10 2450
5 3 1 1 1 1 10 20 2066
5 4 1 1 1 1 10 30 1350
5 5 1 0 0 1 0 30 1767
5 6 1 0 1 0 0 30 1016
5 7 1 0 0 1 0 30 1950
5 8 1 1 1 1 10 40 1333
5 9 1 0 0 1 10 50 4716
5 10 1 1 1 1 10 60 1150
5 11 1 1 1 1 10 70 1116
5 12 1 0 0 1 10 80 900
5 13 1 1 1 1 10 90 966
5 14 1 1 1 1 10 100 1133
5 15 1 1 1 1 10 110 1416
5 16 1 0 0 1 10 120 1583
5 17 1 1 1 1 10 130 1016
5 18 1 1 1 1 0 130 983
5 19 1 1 1 1 10 140 1283
5 20 1 1 1 1 10 150 1050
5 21 1 1 1 1 10 160 1350
5 22 1 1 1 1 10 170 1333
5 23 1 0 0 1 10 180 1016
5 24 1 1 1 1 10 190 1616
5 25 1 0 0 1 0 190 8000
5 26 1 1 1 1 10 200 1016
5 27 1 0 0 1 10 210 1650
5 28 1 0 0 1 10 220 1083
5 29 1 0 0 1 10 230 750
5 30 1 1 1 1 0 230 783
5 31 1 1 1 1 10 240 1283
5 32 1 1 1 1 0 240 2150
5 33 1 1 1 1 0 240 1266
5 34 1 0 0 1 10 250 1283
5 35 1 1 1 1 10 260 983
5 36 1 1 1 1 10 270 1516
5 37 1 0 0 1 0 270 1283
5 38 1 0 0 1 10 280 1516
5 39 1 1 1 1 10 290 1333
5 40 1 0 0 1 10 300 1433
5 41 1 1 1 1 10 310 966
5 42 1 0 0 1 10 320 966
5 43 1 1 1 1 0 320 1133
5 44 1 0 0 1 0 320 1316
5 45 1 1 1 1 10 330 1416
5 46 1 0 0 1 0 330 1566
5 47 1 0 1 0 0 330 883
5 48 1 0 0 1 0 330 566
5 49 1 1 1 1 0 330 1766
5 50 1 1 1 1 10 340 1250
5 51 1 0 0 1 10 350 1550
5 52 1 0 0 1 0 350 1033
5 53 1 0 0 1 10 360 1500
5 54 1 0 1 0 0 360 1000
5 55 1 0 0 1 10 370 800
5 56 1 1 1 1 10 380 1266
5 57 1 1 1 1 0 380 850
5 58 1 0 0 1 10 390 1300
5 59 1 1 1 1 10 400 1083
5 60 1 0 0 1 0 400 3100
5 61 1 0 0 1 10 410 1850
5 62 1 1 1 1 10 420 2100
5 63 1 1 1 1 0 420 1550
5 64 1 1 1 1 0 420 1716
5 65 1 1 1 1 10 430 750
5 66 1 1 1 1 10 440 650
5 67 1 0 0 1 10 450 966
5 68 1 0 0 1 10 460 2550
5 69 1 1 1 1 10 470 1100
5 70 1 1 1 1 10 480 1050
5 71 1 1 1 1 0 480 916
5 72 1 1 1 1 10 490 983
5 73 1 0 0 1 0 490 766
5 74 1 1 1 1 10 500 800
5 75 1 0 0 1 0 500 766
5 76 1 1 1 1 0 500 866
5 77 1 0 0 1 10 510 983
5 78 1 0 0 1 10 520 1066
5 79 1 0 0 1 10 530 1866
5 80 1 0 0 1 10 540 2300
5 81 1 0 0 1 0 540 1166
5 82 1 0 0 1 10 550 900
5 83 1 1 1 1 10 560 1000
5 84 1 0 0 1 10 570 1200
5 85 1 1 1 1 0 570 1483
5 86 1 0 1 0 0 570 1183
5 87 1 0 0 1 10 580 2166
5 88 1 1 1 1 0 580 2183
5 89 1 0 0 1 10 590 1333
5 90 1 0 0 1 10 600 1150
5 91 1 1 1 1 0 600 950
5 92 1 0 0 1 10 610 1433
5 93 1 0 0 1 10 620 1183
5 94 1 0 0 1 10 630 1233
5 95 1 0 0 1 10 640 2033
5 96 1 1 1 1 0 640 1916
5 97 1 0 0 1 10 650 983
5 98 1 1 1 1 0 650 1233
5 99 1 0 0 1 0 650 1416
5 100 1 1 1 1 0 650 700
5 101 0 0 1 0 0 650 850
5 102 0 1 1 1 0 650 866
5 103 0 0 0 1 10 660 800
5 104 0 0 0 1 0 660 816
5 105 0 0 1 0 10 670 683
5 106 0 1 0 0 0 670 700
5 107 0 0 1 0 10 680 1300
5 108 0 1 1 1 10 690 1033
5 109 0 0 1 0 10 700 783
5 110 0 1 1 1 10 710 950
5 111 0 1 1 1 10 720 683
5 112 0 1 1 1 0 720 783
5 113 0 1 1 1 10 730 933
5 114 0 0 1 0 0 730 633
5 115 0 1 1 1 10 740 750
5 116 0 0 0 1 0 740 1383
5 117 0 1 1 1 0 740 716
5 118 0 1 1 1 10 750 800
5 119 0 0 0 1 0 750 1566
5 120 0 0 1 0 10 760 1033
5 121 0 1 1 1 10 770 700
5 122 0 1 1 1 10 780 966
5 123 0 1 1 1 10 790 1283
5 124 0 1 1 1 10 800 1283
5 125 0 1 1 1 0 800 1500
5 126 0 1 1 1 0 800 1050
5 127 0 0 0 1 10 810 2150
5 128 0 1 0 0 0 810 983
5 129 0 0 1 0 0 810 1750
5 130 0 0 1 0 0 810 816
5 131 0 0 0 1 0 810 900
5 132 0 1 0 0 10 820 883
5 133 0 0 1 0 0 820 1250
5 134 0 1 0 0 0 820 816
5 135 0 1 1 1 0 820 1716
5 136 0 0 0 1 10 830 600
5 137 0 0 0 1 10 840 900
5 138 0 1 0 0 0 840 1033
5 139 0 1 0 0 10 850 1333
5 140 0 1 0 0 0 850 883
5 141 0 0 0 1 10 860 1116
5 142 0 1 0 0 0 860 750
5 143 0 1 1 1 0 860 1000
5 144 0 0 0 1 10 870 783
5 145 0 0 1 0 10 880 5466
5 146 0 1 0 0 0 880 1200
5 147 0 1 1 1 0 880 916
5 148 0 0 1 0 10 890 916
5 149 0 0 0 1 0 890 3133
5 150 0 0 0 1 10 900 766
5 151 0 0 0 1 0 900 1166
5 152 0 1 1 1 0 900 1633
5 153 0 1 0 0 10 910 866
5 154 0 0 0 1 0 910 866
5 155 0 0 1 0 0 910 1366
5 156 0 0 0 1 0 910 2216
5 157 0 1 1 1 10 920 1383
5 158 0 1 1 1 10 930 2383
5 159 0 0 0 1 10 940 1483
5 160 0 1 1 1 10 950 666
5 161 0 0 0 1 10 960 683
5 162 0 1 1 1 0 960 1833
5 163 0 0 0 1 10 970 1083
5 164 0 1 1 1 10 980 1166
5 165 0 0 0 1 0 980 716
5 166 0 1 1 1 0 980 1083
5 167 0 0 0 1 10 990 983
5 168 0 0 0 1 10 1000 1200
5 169 0 0 0 1 10 1010 933
5 170 0 1 1 1 10 1020 850
5 171 0 0 0 1 0 1020 916
5 172 0 0 0 1 10 1030 966
5 173 0 1 1 1 10 1040 1450
5 174 0 0 0 1 10 1050 1016
5 175 0 0 0 1 0 1050 1033
5 176 0 1 1 1 10 1060 766
5 177 0 0 0 1 0 1060 866
5 178 0 0 0 1 10 1070 1283
5 179 0 1 1 1 10 1080 1183
5 180 0 0 0 1 0 1080 1583
5 181 0 1 1 1 10 1090 3750
5 182 0 0 0 1 0 1090 983
5 183 0 1 1 1 10 1100 1000
5 184 0 1 1 1 0 1100 1216
5 185 0 0 0 1 10 1110 1400
5 186 0 1 1 1 10 1120 1500
5 187 0 1 1 1 10 1130 1466
5 188 0 1 1 1 0 1130 1533
5 189 0 0 0 1 0 1130 1000
5 190 0 1 1 1 0 1130 2516
5 191 0 0 0 1 0 1130 1316
5 192 0 0 1 0 0 1130 1233
5 193 0 0 0 1 0 1130 733
5 194 0 1 1 1 10 1140 883
5 195 0 1 1 1 0 1140 1483
5 196 0 1 1 1 10 1150 1250
5 197 0 0 0 1 10 1160 816
5 198 0 0 1 0 10 1170 850
5 199 0 0 1 0 10 1180 1300
5 200 0 1 0 0 0 1180 1116
