SubNo TrialNo Mapping State Resp Acc Reward Balance ReactionTime
25 1 0 1 0 0 0 0 13416
25 2 0 1 1 1 10 10 4450
25 3 0 0 1 0 0 10 1250
25 4 0 0 0 1 10 20 1666
25 5 0 0 0 1 10 30 1933
25 6 0 1 1 1 10 40 1000
25 7 0 0 0 1 10 50 1000
25 8 0 0 0 1 0 50 1283
25 9 0 0 1 0 0 50 750
25 10 0 1 0 0 0 50 1200
25 11 0 0 1 0 10 60 2550
25 12 0 1 0 0 0 60 2200
25 13 0 1 1 1 10 70 1900
25 14 0 1 1 1 10 80 1600
25 15 0 1 1 1 0 80 1316
25 16 0 1 1 1 10 90 816
25 17 0 1 1 1 10 100 700
25 18 0 1 0 0 10 110 900
25 19 0 0 1 0 0 110 683
25 20 0 1 1 1 10 120 733
25 21 0 1 0 0 0 120 2033
25 22 0 0 0 1 10 130 950
25 23 0 1 1 1 10 140 2183
25 24 0 1 0 0 0 140 716
25 25 0 0 1 0 10 150 750
25 26 0 0 1 0 0 150 783
25 27 0 0 0 1 0 150 1283
25 28 0 1 1 1 10 160 883
25 29 0 0 1 0 0 160 683
25 30 0 0 0 1 10 170 1050
25 31 0 1 0 0 0 170 783
25 32 0 0 0 1 10 180 1166
25 33 0 1 1 1 10 190 1816
25 34 0 1 1 1 10 200 816
25 35 0 0 0 1 0 200 2150
25 36 0 0 0 1 0 200 783
25 37 0 0 1 0 10 210 1466
25 38 0 1 0 0 10 220 1216
25 39 0 0 0 1 10 230 833
25 40 0 0 0 1 10 240 916
25 41 0 1 1 1 0 240 1416
25 42 0 1 0 0 0 240 833
25 43 0 0 0 1 10 250 750
25 44 0 1 1 1 10 260 950
25 45 0 0 0 1 10 270 716
25 46 0 0 0 1 10 280 750
25 47 0 0 0 1 10 290 1083
25 48 0 1 1 1 10 300 833
25 49 0 0 0 1 0 300 750
25 50 0 0 0 1 10 310 850
25 51 0 1 0 0 10 320 666
25 52 0 1 0 0 0 320 700
25 53 0 0 0 1 0 320 766
25 54 0 0 0 1 10 330 800
25 55 0 0 0 1 10 340 1083
25 56 0 0 0 1 0 340 633
25 57 0 0 0 1 0 340 666
25 58 0 1 0 0 0 340 783
25 59 0 1 0 0 10 350 833
25 60 0 0 0 1 0 350 633
25 61 0 1 0 0 0 350 683
25 62 0 1 0 0 10 360 816
25 63 0 1 0 0 0 360 600
25 64 0 1 0 0 0 360 850
25 65 0 0 0 1 0 360 833
25 66 0 0 0 1 10 370 766
25 67 0 0 0 1 10 380 750
25 68 0 0 0 1 10 390 816
25 69 0 0 0 1 0 390 1400
25 70 0 1 1 1 10 400 900
25 71 0 0 0 1 10 410 800
25 72 0 0 0 1 10 420 1066
25 73 0 1 0 0 10 430 766
25 74 0 1 0 0 0 430 716
25 75 0 1 0 0 10 440 750
25 76 0 1 0 0 0 440 716
25 77 0 0 0 1 10 450 683
25 78 0 1 0 0 0 450 2083
25 79 0 0 0 1 10 460 750
25 80 0 1 0 0 10 470 850
25 81 0 1 0 0 0 470 616
25 82 0 0 0 1 10 480 900
25 83 0 1 0 0 0 480 1016
25 84 0 1 0 0 0 480 2350
25 85 0 1 0 0 10 490 2533
25 86 0 1 0 0 0 490 600
25 87 0 0 0 1 10 500 1116
25 88 0 1 1 1 0 500 866
25 89 0 1 0 0 0 500 683
25 90 0 0 0 1 10 510 1066
25 91 0 1 1 1 10 520 766
25 92 0 0 0 1 0 520 1416
25 93 0 1 0 0 0 520 1150
25 94 0 0 0 1 0 520 1300
25 95 0 1 0 0 0 520 1283
25 96 0 0 0 1 10 530 700
25 97 0 0 0 1 10 540 600
25 98 0 1 0 0 0 540 966
25 99 0 0 0 1 10 550 766
25 100 0 0 0 1 10 560 600
25 101 1 1 1 1 10 570 716
25 102 1 1 0 0 10 580 983
25 103 1 1 1 1 0 580 1433
25 104 1 0 1 0 10 590 766
25 105 1 0 1 0 0 590 800
25 106 1 0 0 1 10 600 666
25 107 1 0 1 0 0 600 783
25 108 1 1 1 1 0 600 816
25 109 1 1 1 1 0 600 750
25 110 1 1 0 0 0 600 1016
25 111 1 0 1 0 0 600 983
25 112 1 0 1 0 10 610 683
25 113 1 0 1 0 10 620 850
25 114 1 0 0 1 10 630 1100
25 115 1 1 1 1 0 630 850
25 116 1 1 0 0 0 630 800
25 117 1 0 1 0 0 630 933
25 118 1 1 1 1 10 640 816
25 119 1 0 1 0 10 650 650
25 120 1 1 0 0 0 650 783
25 121 1 1 0 0 0 650 816
25 122 1 1 0 0 10 660 800
25 123 1 0 0 1 10 670 700
25 124 1 1 1 1 0 670 966
25 125 1 1 1 1 0 670 616
25 126 1 0 1 0 10 680 633
25 127 1 0 1 0 10 690 933
25 128 1 0 0 1 10 700 616
25 129 1 0 0 1 0 700 783
25 130 1 1 0 0 0 700 883
25 131 1 0 1 0 0 700 683
25 132 1 0 0 1 0 700 633
25 133 1 1 0 0 0 700 666
25 134 1 0 0 1 10 710 716
25 135 1 0 0 1 10 720 1133
25 136 1 1 0 0 0 720 733
25 137 1 1 1 1 10 730 716
25 138 1 1 1 1 0 730 900
25 139 1 0 0 1 10 740 816
25 140 1 1 0 0 10 750 650
25 141 1 1 0 0 0 750 800
25 142 1 0 1 0 0 750 666
25 143 1 0 1 0 0 750 733
25 144 1 0 1 0 10 760 633
25 145 1 0 1 0 0 760 650
25 146 1 1 0 0 0 760 650
25 147 1 0 0 1 10 770 883
25 148 1 0 0 1 10 780 966
25 149 1 0 1 0 0 780 1483
25 150 1 0 0 1 10 790 833
25 151 1 1 0 0 10 800 1833
25 152 1 1 1 1 0 800 1050
25 153 1 1 1 1 10 810 1400
25 154 1 1 0 0 0 810 716
25 155 1 0 0 1 10 820 700
25 156 1 1 0 0 0 820 1200
25 157 1 0 1 0 0 820 1566
25 158 1 0 0 1 0 820 700
25 159 1 1 0 0 0 820 683
25 160 1 0 1 0 0 820 1033
25 161 1 0 1 0 0 820 933
25 162 1 1 0 0 0 820 816
25 163 1 1 1 1 10 830 716
25 164 1 1 1 1 10 840 650
25 165 1 0 0 1 10 850 666
25 166 1 1 0 0 10 860 866
25 167 1 0 0 1 10 870 733
25 168 1 1 1 1 0 870 750
25 169 1 0 1 0 0 870 716
25 170 1 1 1 1 10 880 600
25 171 1 1 1 1 10 890 683
25 172 1 1 0 0 0 890 683
25 173 1 0 0 1 0 890 1000
25 174 1 0 1 0 0 890 1133
25 175 1 0 0 1 10 900 933
25 176 1 0 0 1 10 910 783
25 177 1 1 0 0 0 910 683
25 178 1 0 1 0 0 910 566
25 179 1 1 0 0 0 910 916
25 180 1 1 0 0 0 910 700
25 181 1 1 0 0 0 910 800
25 182 1 1 0 0 0 910 683
25 183 1 0 1 0 0 910 716
25 184 1 1 1 1 0 910 800
25 185 1 1 1 1 0 910 633
25 186 1 0 1 0 0 910 583
25 187 1 0 1 0 10 920 850
25 188 1 0 1 0 0 920 566
25 189 1 0 1 0 0 920 616
25 190 1 0 1 0 10 930 616
25 191 1 0 1 0 10 940 1116
25 192 1 1 1 1 0 940 683
25 193 1 1 1 1 0 940 650
25 194 1 0 1 0 0 940 750
25 195 1 1 1 1 10 950 633
25 196 1 1 1 1 0 950 750
25 197 1 1 1 1 10 960 616
25 198 1 1 1 1 10 970 616
25 199 1 0 0 1 0 970 850
25 200 1 1 1 1 0 970 816
