SubNo TrialNo Mapping State Resp Acc Reward Balance ReactionTime
6 1 0 1 0 0 0 0 8729
6 2 0 0 0 1 10 10 3532
6 3 0 0 0 1 10 20 3799
6 4 0 1 1 1 0 20 3617
6 5 0 0 0 1 0 20 6177
6 6 0 0 1 0 0 20 3616
6 7 0 0 0 1 10 30 2250
6 8 0 1 1 1 10 40 1116
6 9 0 0 1 0 0 40 1450
6 10 0 1 1 1 0 40 6716
6 11 0 0 1 0 0 40 7633
6 12 0 1 1 1 10 50 23850
6 13 0 0 0 1 10 60 4500
6 14 0 0 0 1 10 70 1050
6 15 0 0 0 1 10 80 783
6 16 0 0 0 1 10 90 2050
6 17 0 1 1 1 0 90 916
6 18 0 1 0 0 0 90 2233
6 19 0 1 1 1 10 100 1450
6 20 0 0 0 1 10 110 1550
6 21 0 0 0 1 0 110 1366
6 22 0 1 0 0 0 110 1733
6 23 0 0 0 1 0 110 683
6 24 0 0 0 1 0 110 733
6 25 0 0 1 0 10 120 833
6 26 0 1 0 0 0 120 4267
6 27 0 1 1 1 10 130 3617
6 28 0 1 1 1 10 140 850
6 29 0 0 0 1 10 150 2400
6 30 0 1 0 0 0 150 1766
6 31 0 1 1 1 10 160 1450
6 32 0 1 1 1 0 160 7650
6 33 0 1 0 0 0 160 1050
6 34 0 1 1 1 10 170 866
6 35 0 1 1 1 0 170 1333
6 36 0 1 0 0 0 170 833
6 37 0 1 1 1 0 170 1233
6 38 0 1 1 1 10 180 666
6 39 0 1 1 1 0 180 916
6 40 0 1 1 1 0 180 600
6 41 0 0 0 1 0 180 850
6 42 0 0 0 1 10 190 700
6 43 0 0 0 1 10 200 816
6 44 0 0 0 1 10 210 1850
6 45 0 1 1 1 0 210 1066
6 46 0 1 0 0 10 220 1766
6 47 0 0 0 1 10 230 916
6 48 0 0 0 1 0 230 2316
6 49 0 1 1 1 10 240 2066
6 50 0 0 0 1 0 240 1983
6 51 0 1 1 1 10 250 783
6 52 0 0 0 1 10 260 716
6 53 0 0 0 1 0 260 766
6 54 0 0 0 1 0 260 683
6 55 0 0 0 1 0 260 883
6 56 0 0 1 0 0 260 633
6 57 0 1 1 1 0 260 1850
6 58 0 1 0 0 0 260 866
6 59 0 0 1 0 0 260 1800
6 60 0 1 1 1 10 270 5783
6 61 0 1 1 1 0 270 1350
6 62 0 0 0 1 10 280 900
6 63 0 0 0 1 10 290 1150
6 64 0 1 1 1 10 300 7733
6 65 0 0 0 1 0 300 3366
6 66 0 1 1 1 10 310 1816
6 67 0 0 0 1 0 310 2583
6 68 0 1 1 1 10 320 1183
6 69 0 1 1 1 10 330 3050
6 70 0 1 1 1 0 330 2333
6 71 0 1 0 0 10 340 1216
6 72 0 1 1 1 10 350 3750
6 73 0 1 0 0 0 350 850
6 74 0 0 0 1 0 350 1616
6 75 0 1 1 1 10 360 2233
6 76 0 1 1 1 10 370 2383
6 77 0 1 0 0 0 370 600
6 78 0 0 0 1 0 370 1166
6 79 0 1 1 1 10 380 1866
6 80 0 1 1 1 10 390 766
6 81 0 0 0 1 10 400 2333
6 82 0 0 0 1 0 400 833
6 83 0 0 1 0 10 410 850
6 84 0 1 1 1 0 410 5466
6 85 0 0 0 1 10 420 3883
6 86 0 1 0 0 0 420 1350
6 87 0 0 0 1 0 420 3050
6 88 0 1 1 1 10 430 1316
6 89 0 0 0 1 10 440 2050
6 90 0 0 0 1 0 440 3483
6 91 0 0 0 1 0 440 1550
6 92 0 0 0 1 10 450 1166
6 93 0 0 0 1 0 450 800
6 94 0 0 0 1 10 460 783
6 95 0 0 0 1 10 470 633
6 96 0 0 0 1 0 470 733
6 97 0 0 0 1 10 480 600
6 98 0 1 1 1 10 490 1500
6 99 0 1 1 1 0 490 1433
6 100 0 1 1 1 0 490 750
6 101 1 1 0 0 0 490 1150
6 102 1 1 1 1 10 500 833
6 103 1 0 1 0 0 500 1116
6 104 1 1 1 1 0 500 2250
6 105 1 0 1 0 0 500 1316
6 106 1 0 0 1 10 510 2133
6 107 1 1 1 1 10 520 3750
6 108 1 0 0 1 10 530 2816
6 109 1 1 1 1 0 530 900
6 110 1 0 1 0 0 530 2533
6 111 1 1 1 1 10 540 1333
6 112 1 0 1 0 0 540 1016
6 113 1 1 0 0 0 540 3066
6 114 1 0 1 0 0 540 1616
6 115 1 1 0 0 0 540 8300
6 116 1 1 1 1 0 540 4783
6 117 1 1 0 0 10 550 716
6 118 1 0 1 0 0 550 766
6 119 1 0 1 0 0 550 1933
6 120 1 1 1 1 10 560 3533
6 121 1 1 1 1 10 570 5766
6 122 1 1 0 0 10 580 2083
6 123 1 0 1 0 10 590 4450
6 124 1 1 0 0 10 600 3200
6 125 1 1 0 0 0 600 3900
6 126 1 0 0 1 10 610 2450
6 127 1 1 1 1 10 620 11066
6 128 1 0 0 1 10 630 5583
6 129 1 0 1 0 0 630 2233
6 130 1 1 1 1 10 640 1933
6 131 1 0 0 1 10 650 5016
6 132 1 0 0 1 10 660 1300
6 133 1 1 1 1 10 670 3266
6 134 1 1 1 1 10 680 950
6 135 1 0 1 0 0 680 2200
6 136 1 0 0 1 10 690 916
6 137 1 0 0 1 0 690 950
6 138 1 1 0 0 0 690 1966
6 139 1 1 1 1 10 700 816
6 140 1 0 1 0 0 700 7150
6 141 1 0 1 0 0 700 1450
6 142 1 1 1 1 10 710 1733
6 143 1 0 0 1 10 720 550
6 144 1 1 1 1 0 720 966
6 145 1 1 0 0 0 720 1200
6 146 1 1 0 0 0 720 1433
6 147 1 0 0 1 0 720 1600
6 148 1 1 0 0 10 730 1183
6 149 1 1 0 0 0 730 850
6 150 1 0 1 0 10 740 1500
6 151 1 0 0 1 10 750 1083
6 152 1 1 1 1 10 760 1400
6 153 1 1 1 1 0 760 1416
6 154 1 0 1 0 0 760 933
6 155 1 1 1 1 10 770 966
6 156 1 0 0 1 10 780 1033
6 157 1 1 1 1 10 790 2416
6 158 1 1 0 0 10 800 1600
6 159 1 0 1 0 0 800 1066
6 160 1 0 1 0 10 810 1566
6 161 1 1 1 1 0 810 1250
6 162 1 0 1 0 0 810 1050
6 163 1 1 0 0 0 810 650
6 164 1 0 1 0 0 810 2266
6 165 1 1 0 0 0 810 4800
6 166 1 1 1 1 10 820 1316
6 167 1 1 1 1 0 820 850
6 168 1 1 1 1 10 830 1450
6 169 1 1 0 0 10 840 666
6 170 1 0 1 0 0 840 2300
6 171 1 0 1 0 10 850 1250
6 172 1 1 1 1 10 860 1233
6 173 1 0 0 1 10 870 1583
6 174 1 1 1 1 10 880 1083
6 175 1 0 0 1 10 890 650
6 176 1 0 1 0 10 900 1233
6 177 1 0 0 1 0 900 616
6 178 1 0 1 0 0 900 933
6 179 1 0 1 0 0 900 4366
6 180 1 0 0 1 10 910 600
6 181 1 0 0 1 10 920 583
6 182 1 0 0 1 10 930 616
6 183 1 0 0 1 10 940 700
6 184 1 1 1 1 10 950 533
6 185 1 1 1 1 0 950 550
6 186 1 1 0 0 0 950 1066
6 187 1 1 1 1 10 960 716
6 188 1 0 0 1 0 960 766
6 189 1 0 1 0 10 970 566
6 190 1 0 1 0 0 970 566
6 191 1 0 1 0 0 970 1850
6 192 1 1 0 0 0 970 916
6 193 1 0 1 0 0 970 850
6 194 1 1 0 0 0 970 716
6 195 1 0 0 1 10 980 1266
6 196 1 1 1 1 10 990 616
6 197 1 1 1 1 0 990 850
6 198 1 0 0 1 10 1000 2066
6 199 1 0 1 0 0 1000 983
6 200 1 1 1 1 10 1010 716
