SubNo TrialNo Mapping State Resp Acc Reward Balance ReactionTime
15 1 1 1 1 1 10 10 2845
15 2 1 0 0 1 0 10 1900
15 3 1 1 1 1 0 10 3682
15 4 1 0 0 1 0 10 2266
15 5 1 0 0 1 10 20 2527
15 6 1 0 0 1 10 30 2066
15 7 1 1 1 1 10 40 3716
15 8 1 1 1 1 0 40 7133
15 9 1 1 1 1 0 40 3200
15 10 1 0 0 1 10 50 2866
15 11 1 1 1 1 10 60 5216
15 12 1 1 1 1 10 70 2266
15 13 1 1 1 1 10 80 933
15 14 1 0 0 1 0 80 1883
15 15 1 1 1 1 10 90 3666
15 16 1 0 1 0 10 100 2433
15 17 1 0 1 0 10 110 1683
15 18 1 1 0 0 0 110 1716
15 19 1 1 1 1 0 110 1483
15 20 1 1 1 1 0 110 1466
15 21 1 0 0 1 10 120 2566
15 22 1 0 0 1 10 130 2583
15 23 1 0 0 1 10 140 2050
15 24 1 1 0 0 0 140 2750
15 25 1 1 1 1 10 150 1650
15 26 1 0 0 1 10 160 1783
15 27 1 0 0 1 10 170 1183
15 28 1 0 0 1 10 180 983
15 29 1 0 0 1 0 180 1916
15 30 1 0 0 1 10 190 1333
15 31 1 0 0 1 0 190 1283
15 32 1 0 0 1 10 200 1133
15 33 1 0 0 1 0 200 966
15 34 1 0 1 0 0 200 700
15 35 1 1 1 1 10 210 1517
15 36 1 1 1 1 10 220 2066
15 37 1 0 0 1 0 220 1783
15 38 1 0 0 1 10 230 2050
15 39 1 0 0 1 10 240 1116
15 40 1 1 1 1 10 250 1266
15 41 1 1 1 1 0 250 1683
15 42 1 1 1 1 0 250 3300
15 43 1 0 0 1 10 260 1350
15 44 1 1 1 1 10 270 2616
15 45 1 1 1 1 0 270 1566
15 46 1 1 1 1 10 280 816
15 47 1 1 1 1 10 290 1333
15 48 1 0 0 1 10 300 1700
15 49 1 1 1 1 0 300 1350
15 50 1 1 1 1 10 310 1033
15 51 1 0 1 0 10 320 3200
15 52 1 1 1 1 0 320 1350
15 53 1 0 0 1 10 330 1833
15 54 1 0 0 1 0 330 1116
15 55 1 1 1 1 10 340 1283
15 56 1 0 0 1 10 350 1650
15 57 1 0 0 1 10 360 1950
15 58 1 1 1 1 10 370 1966
15 59 1 0 0 1 10 380 2716
15 60 1 0 0 1 0 380 2216
15 61 1 1 1 1 0 380 1600
15 62 1 0 0 1 10 390 1050
15 63 1 0 0 1 10 400 3666
15 64 1 0 0 1 10 410 1733
15 65 1 0 0 1 0 410 1566
15 66 1 1 1 1 10 420 1716
15 67 1 0 0 1 0 420 1150
15 68 1 1 0 0 0 420 2366
15 69 1 0 0 1 10 430 1383
15 70 1 1 1 1 10 440 1366
15 71 1 0 0 1 10 450 2633
15 72 1 0 0 1 10 460 3266
15 73 1 1 1 1 0 460 1500
15 74 1 1 0 0 0 460 1500
15 75 1 0 0 1 10 470 1016
15 76 1 1 1 1 10 480 1800
15 77 1 1 1 1 0 480 1216
15 78 1 0 0 1 10 490 766
15 79 1 0 0 1 10 500 1583
15 80 1 1 1 1 10 510 2233
15 81 1 1 1 1 10 520 2350
15 82 1 0 0 1 10 530 2850
15 83 1 0 0 1 10 540 1033
15 84 1 1 1 1 10 550 966
15 85 1 0 0 1 10 560 933
15 86 1 1 1 1 10 570 1033
15 87 1 0 0 1 0 570 900
15 88 1 1 1 1 10 580 1300
15 89 1 1 1 1 10 590 2083
15 90 1 1 1 1 10 600 2466
15 91 1 1 1 1 10 610 2333
15 92 1 1 1 1 10 620 2466
15 93 1 1 1 1 10 630 1233
15 94 1 1 1 1 0 630 1583
15 95 1 0 0 1 10 640 1816
15 96 1 0 0 1 10 650 1266
15 97 1 0 0 1 0 650 1100
15 98 1 1 1 1 0 650 1300
15 99 1 1 1 1 10 660 1800
15 100 1 1 1 1 0 660 1733
15 101 0 0 1 0 0 660 1250
15 102 0 0 0 1 10 670 850
15 103 0 1 1 1 0 670 1150
15 104 0 1 0 0 0 670 1100
15 105 0 1 1 1 0 670 2216
15 106 0 1 0 0 0 670 666
15 107 0 0 1 0 10 680 2200
15 108 0 1 0 0 0 680 1950
15 109 0 0 1 0 0 680 1583
15 110 0 0 0 1 0 680 1500
15 111 0 0 0 1 10 690 2616
15 112 0 1 0 0 0 690 2766
15 113 0 1 1 1 10 700 1433
15 114 0 0 0 1 10 710 2233
15 115 0 1 1 1 10 720 1600
15 116 0 1 1 1 10 730 1350
15 117 0 1 1 1 10 740 1700
15 118 0 0 0 1 10 750 1716
15 119 0 0 0 1 0 750 2033
15 120 0 0 0 1 10 760 1000
15 121 0 1 1 1 10 770 1583
15 122 0 1 1 1 10 780 2016
15 123 0 1 1 1 10 790 3400
15 124 0 1 1 1 0 790 1683
15 125 0 1 1 1 10 800 1366
15 126 0 1 1 1 0 800 1200
15 127 0 1 0 0 0 800 1966
15 128 0 0 0 1 0 800 1283
15 129 0 0 1 0 0 800 966
15 130 0 1 0 0 0 800 2516
15 131 0 0 0 1 0 800 1683
15 132 0 0 0 1 10 810 1216
15 133 0 0 0 1 10 820 1417
15 134 0 0 0 1 10 830 1083
15 135 0 1 1 1 0 830 1416
15 136 0 1 0 0 10 840 1200
15 137 0 1 0 0 0 840 966
15 138 0 1 1 1 10 850 1133
15 139 0 0 0 1 10 860 1533
15 140 0 0 0 1 10 870 883
15 141 0 0 0 1 0 870 916
15 142 0 1 0 0 0 870 1333
15 143 0 0 0 1 0 870 1916
15 144 0 0 0 1 0 870 866
15 145 0 0 1 0 0 870 733
15 146 0 0 1 0 0 870 1150
15 147 0 0 0 1 0 870 1516
15 148 0 1 1 1 0 870 1000
15 149 0 0 0 1 10 880 1650
15 150 0 1 0 0 0 880 1066
15 151 0 1 1 1 10 890 816
15 152 0 0 0 1 0 890 2583
15 153 0 1 1 1 0 890 833
15 154 0 0 1 0 0 890 1866
15 155 0 1 1 1 0 890 1400
15 156 0 1 1 1 10 900 2833
15 157 0 0 0 1 10 910 2366
15 158 0 1 1 1 10 920 2600
15 159 0 0 0 1 10 930 1000
15 160 0 0 0 1 10 940 1400
15 161 0 0 0 1 10 950 1250
15 162 0 1 1 1 10 960 1150
15 163 0 0 0 1 10 970 1600
15 164 0 1 1 1 10 980 1166
15 165 0 1 1 1 10 990 3816
15 166 0 1 1 1 10 1000 1683
15 167 0 1 1 1 0 1000 2450
15 168 0 0 1 0 0 1000 1916
15 169 0 0 0 1 10 1010 1633
15 170 0 0 0 1 0 1010 983
15 171 0 0 0 1 10 1020 833
15 172 0 1 1 1 10 1030 1766
15 173 0 0 0 1 10 1040 2483
15 174 0 1 0 0 0 1040 1650
15 175 0 1 1 1 10 1050 1783
15 176 0 1 1 1 10 1060 1400
15 177 0 1 1 1 10 1070 1700
15 178 0 0 1 0 10 1080 2350
15 179 0 0 0 1 10 1090 2033
15 180 0 1 1 1 10 1100 1283
15 181 0 1 1 1 10 1110 3250
15 182 0 1 1 1 10 1120 1933
15 183 0 0 1 0 0 1120 1216
15 184 0 0 0 1 10 1130 2116
15 185 0 0 0 1 10 1140 816
15 186 0 0 0 1 10 1150 966
15 187 0 0 0 1 0 1150 1800
15 188 0 0 0 1 10 1160 616
15 189 0 0 0 1 10 1170 1016
15 190 0 1 1 1 10 1180 983
15 191 0 0 0 1 10 1190 2316
15 192 0 1 1 1 10 1200 2016
15 193 0 0 0 1 10 1210 2650
15 194 0 1 1 1 0 1210 4433
15 195 0 1 1 1 10 1220 2150
15 196 0 1 1 1 10 1230 4450
15 197 0 1 1 1 10 1240 4416
15 198 0 0 0 1 10 1250 1316
15 199 0 0 0 1 10 1260 1866
15 200 0 1 1 1 10 1270 1800
