SubNo TrialNo Mapping WhiteProp State Resp Acc Reward Balance ReactionTime
20 1 0 0.4994 0 0 1 10 10 1316
20 2 0 0.4994 0 0 1 10 20 950
20 3 0 0.4994 0 1 0 0 20 916
20 4 0 0.4994 0 1 0 0 20 1050
20 5 0 0.4994 0 0 1 10 30 1216
20 6 0 0.4994 0 0 1 10 40 916
20 7 0 0.5308 1 0 0 0 40 1033
20 8 0 0.4994 0 1 0 0 40 1316
20 9 0 0.4994 0 1 0 0 40 1266
20 10 0 0.4994 0 0 1 10 50 1933
20 11 0 0.5308 1 1 1 10 60 1000
20 12 0 0.5308 1 0 0 0 60 1050
20 13 0 0.5308 1 0 0 0 60 1567
20 14 0 0.5308 1 0 0 0 60 1083
20 15 0 0.5308 1 0 0 0 60 783
20 16 0 0.4994 0 1 0 0 60 966
20 17 0 0.4994 0 0 1 10 70 866
20 18 0 0.4994 0 0 1 10 80 767
20 19 0 0.5308 1 1 1 10 90 933
20 20 0 0.5308 1 0 0 0 90 850
20 21 0 0.4994 0 1 0 0 90 700
20 22 0 0.4994 0 1 0 0 90 800
20 23 0 0.5308 1 1 1 10 100 766
20 24 0 0.5308 1 1 1 10 110 1000
20 25 0 0.4994 0 0 1 10 120 800
20 26 0 0.5308 1 1 1 10 130 700
20 27 0 0.5308 1 1 1 10 140 833
20 28 0 0.5308 1 1 1 10 150 1316
20 29 0 0.4994 0 0 1 10 160 700
20 30 0 0.5308 1 0 0 0 160 816
20 31 0 0.4994 0 0 1 10 170 1066
20 32 0 0.5308 1 1 1 10 180 1066
20 33 0 0.4994 0 0 1 10 190 1300
20 34 0 0.4994 0 0 1 10 200 716
20 35 0 0.4994 0 0 1 10 210 733
20 36 0 0.4994 0 0 1 10 220 850
20 37 0 0.5308 1 0 0 0 220 933
20 38 0 0.5308 1 1 1 10 230 1016
20 39 0 0.5308 1 0 0 0 230 1450
20 40 0 0.4994 0 0 1 10 240 850
20 41 0 0.4994 0 0 1 10 250 800
20 42 0 0.4994 0 0 1 10 260 683
20 43 0 0.5308 1 1 1 10 270 916
20 44 0 0.4994 0 0 1 10 280 1550
20 45 0 0.4994 0 0 1 10 290 1033
20 46 0 0.5308 1 0 0 0 290 683
20 47 0 0.5308 1 0 0 0 290 800
20 48 0 0.5308 1 0 0 0 290 1083
20 49 0 0.5308 1 1 1 10 300 900
20 50 0 0.5308 1 0 0 0 300 1066
20 51 0 0.5308 1 0 0 0 300 966
20 52 0 0.4994 0 0 1 10 310 816
20 53 0 0.5308 1 1 1 10 320 1483
20 54 0 0.5308 1 0 0 0 320 833
20 55 0 0.4994 0 0 1 10 330 683
20 56 0 0.4994 0 0 1 10 340 950
20 57 0 0.4994 0 0 1 10 350 883
20 58 0 0.4994 0 0 1 10 360 783
20 59 0 0.5308 1 0 0 0 360 633
20 60 0 0.4994 0 0 1 10 370 966
20 61 0 0.5308 1 1 1 10 380 900
20 62 0 0.5308 1 0 0 0 380 883
20 63 0 0.5308 1 0 0 0 380 716
20 64 0 0.4994 0 0 1 10 390 783
20 65 0 0.5308 1 0 0 0 390 866
20 66 0 0.5308 1 1 1 10 400 916
20 67 0 0.5308 1 0 0 0 400 1200
20 68 0 0.4994 0 0 1 10 410 1083
20 69 0 0.5308 1 1 1 10 420 733
20 70 0 0.4994 0 1 0 0 420 900
20 71 0 0.4994 0 1 0 0 420 933
20 72 0 0.4994 0 1 0 0 420 1350
20 73 0 0.5308 1 1 1 10 430 1450
20 74 0 0.4994 0 0 1 10 440 816
20 75 0 0.5308 1 1 1 10 450 1050
20 76 0 0.4994 0 1 0 0 450 933
20 77 0 0.4994 0 1 0 0 450 966
20 78 0 0.4994 0 1 0 0 450 1466
20 79 0 0.5308 1 0 0 0 450 800
20 80 0 0.5308 1 1 1 10 460 1200
20 81 0 0.4994 0 1 0 0 460 1650
20 82 0 0.5308 1 1 1 10 470 866
20 83 0 0.5308 1 1 1 10 480 1083
20 84 0 0.5308 1 0 0 0 480 866
20 85 0 0.4994 0 0 1 10 490 1516
20 86 0 0.5308 1 0 0 0 490 1183
20 87 0 0.5308 1 1 1 10 500 1033
20 88 0 0.4994 0 1 0 0 500 966
20 89 0 0.5308 1 1 1 10 510 916
20 90 0 0.5308 1 1 1 10 520 916
20 91 0 0.4994 0 0 1 10 530 867
20 92 0 0.4994 0 0 1 10 540 750
20 93 0 0.4994 0 1 0 0 540 833
20 94 0 0.4994 0 0 1 10 550 866
20 95 0 0.4994 0 0 1 10 560 833
20 96 0 0.5308 1 1 1 10 570 850
20 97 0 0.4994 0 0 1 10 580 1033
20 98 0 0.5308 1 1 1 10 590 1016
20 99 0 0.5308 1 0 0 0 590 933
20 100 0 0.5308 1 1 1 10 600 1116
20 101 1 0.4994 0 0 1 10 610 816
20 102 1 0.4994 0 0 1 10 620 816
20 103 1 0.4994 0 1 0 0 620 933
20 104 1 0.4994 0 1 0 0 620 1750
20 105 1 0.5308 1 0 0 0 620 916
20 106 1 0.4994 0 1 0 0 620 1133
20 107 1 0.5308 1 1 1 10 630 850
20 108 1 0.4994 0 1 0 0 630 966
20 109 1 0.4994 0 0 1 10 640 833
20 110 1 0.4994 0 0 1 10 650 883
20 111 1 0.4994 0 0 1 10 660 850
20 112 1 0.4994 0 0 1 10 670 950
20 113 1 0.4994 0 0 1 10 680 700
20 114 1 0.5308 1 0 0 0 680 683
20 115 1 0.5308 1 1 1 10 690 783
20 116 1 0.4994 0 1 0 0 690 1000
20 117 1 0.4994 0 0 1 10 700 966
20 118 1 0.5308 1 1 1 10 710 1200
20 119 1 0.4994 0 1 0 0 710 850
20 120 1 0.4994 0 0 1 10 720 1583
20 121 1 0.5308 1 0 0 0 720 1666
20 122 1 0.5308 1 0 0 0 720 1417
20 123 1 0.4994 0 1 0 0 720 900
20 124 1 0.4994 0 1 0 0 720 817
20 125 1 0.4994 0 0 1 10 730 1083
20 126 1 0.4994 0 0 1 10 740 1200
20 127 1 0.4994 0 1 0 0 740 1133
20 128 1 0.4994 0 1 0 0 740 950
20 129 1 0.4994 0 1 0 0 740 1067
20 130 1 0.5308 1 1 1 10 750 1533
20 131 1 0.5308 1 1 1 10 760 966
20 132 1 0.5308 1 1 1 10 770 850
20 133 1 0.5308 1 0 0 0 770 1516
20 134 1 0.5308 1 1 1 10 780 1300
20 135 1 0.5308 1 0 0 0 780 1200
20 136 1 0.4994 0 0 1 10 790 1050
20 137 1 0.5308 1 1 1 10 800 716
20 138 1 0.4994 0 1 0 0 800 850
20 139 1 0.4994 0 0 1 10 810 1150
20 140 1 0.4994 0 0 1 10 820 966
20 141 1 0.4994 0 0 1 10 830 733
20 142 1 0.5308 1 1 1 10 840 800
20 143 1 0.5308 1 1 1 10 850 1016
20 144 1 0.5308 1 0 0 0 850 933
20 145 1 0.5308 1 1 1 10 860 883
20 146 1 0.5308 1 0 0 0 860 783
20 147 1 0.4994 0 0 1 10 870 950
20 148 1 0.4994 0 0 1 10 880 1366
20 149 1 0.4994 0 1 0 0 880 916
20 150 1 0.4994 0 0 1 10 890 1250
20 151 1 0.4994 0 1 0 0 890 2116
20 152 1 0.5308 1 0 0 0 890 1016
20 153 1 0.5308 1 0 0 0 890 833
20 154 1 0.5308 1 1 1 10 900 733
20 155 1 0.5308 1 0 0 0 900 834
20 156 1 0.4994 0 1 0 0 900 850
20 157 1 0.5308 1 0 0 0 900 800
20 158 1 0.5308 1 0 0 0 900 966
20 159 1 0.5308 1 0 0 0 900 1550
20 160 1 0.4994 0 1 0 0 900 1050
20 161 1 0.4994 0 1 0 0 900 883
20 162 1 0.5308 1 0 0 0 900 800
20 163 1 0.5308 1 1 1 10 910 1066
20 164 1 0.5308 1 1 1 10 920 716
20 165 1 0.4994 0 0 1 10 930 933
20 166 1 0.4994 0 0 1 10 940 1166
20 167 1 0.5308 1 0 0 0 940 900
20 168 1 0.4994 0 1 0 0 940 916
20 169 1 0.5308 1 1 1 10 950 1116
20 170 1 0.5308 1 1 1 10 960 1100
20 171 1 0.4994 0 0 1 10 970 950
20 172 1 0.5308 1 0 0 0 970 650
20 173 1 0.5308 1 1 1 10 980 1766
20 174 1 0.5308 1 1 1 10 990 1400
20 175 1 0.5308 1 1 1 10 1000 1000
20 176 1 0.5308 1 0 0 0 1000 683
20 177 1 0.5308 1 0 0 0 1000 766
20 178 1 0.5308 1 1 1 10 1010 1266
20 179 1 0.5308 1 0 0 0 1010 700
20 180 1 0.5308 1 1 1 10 1020 1333
20 181 1 0.4994 0 1 0 0 1020 1283
20 182 1 0.4994 0 0 1 10 1030 983
20 183 1 0.4994 0 0 1 10 1040 966
20 184 1 0.5308 1 1 1 10 1050 800
20 185 1 0.5308 1 1 1 10 1060 766
20 186 1 0.4994 0 0 1 10 1070 833
20 187 1 0.4994 0 0 1 10 1080 683
20 188 1 0.5308 1 1 1 10 1090 783
20 189 1 0.5308 1 1 1 10 1100 700
20 190 1 0.4994 0 0 1 10 1110 1166
20 191 1 0.5308 1 1 1 10 1120 766
20 192 1 0.4994 0 0 1 10 1130 783
20 193 1 0.4994 0 1 0 0 1130 600
20 194 1 0.5308 1 0 0 0 1130 783
20 195 1 0.5308 1 0 0 0 1130 883
20 196 1 0.4994 0 1 0 0 1130 1083
20 197 1 0.5308 1 1 1 10 1140 850
20 198 1 0.5308 1 0 0 0 1140 833
20 199 1 0.4994 0 1 0 0 1140 1000
20 200 1 0.4994 0 0 1 10 1150 1666
