SubNo TrialNo Mapping WhiteProp State Resp Acc Reward Balance ReactionTime
33 1 1 0.4929 0 1 0 0 0 2483
33 2 1 0.5174 1 0 0 0 0 616
33 3 1 0.5174 1 1 1 10 10 2600
33 4 1 0.4929 0 1 0 0 10 516
33 5 1 0.5174 1 0 0 0 10 1233
33 6 1 0.5174 1 1 1 10 20 4083
33 7 1 0.5174 1 0 0 0 20 2333
33 8 1 0.4929 0 1 0 0 20 616
33 9 1 0.4929 0 0 1 10 30 2516
33 10 1 0.4929 0 1 0 0 30 1533
33 11 1 0.5174 1 0 0 0 30 1516
33 12 1 0.5174 1 1 1 10 40 1666
33 13 1 0.4929 0 1 0 0 40 3450
33 14 1 0.4929 0 1 0 0 40 1683
33 15 1 0.5174 1 1 1 10 50 1283
33 16 1 0.5174 1 1 1 10 60 966
33 17 1 0.4929 0 0 1 10 70 1133
33 18 1 0.5174 1 0 0 0 70 1683
33 19 1 0.4929 0 0 1 10 80 1483
33 20 1 0.5174 1 1 1 10 90 1166
33 21 1 0.5174 1 1 1 10 100 2466
33 22 1 0.4929 0 0 1 10 110 1450
33 23 1 0.4929 0 0 1 10 120 1050
33 24 1 0.4929 0 0 1 10 130 1983
33 25 1 0.4929 0 0 1 10 140 1250
33 26 1 0.4929 0 0 1 10 150 1233
33 27 1 0.5174 1 1 1 10 160 1216
33 28 1 0.4929 0 0 1 10 170 1216
33 29 1 0.5174 1 1 1 10 180 1350
33 30 1 0.5174 1 1 1 10 190 3366
33 31 1 0.5174 1 0 0 0 190 2633
33 32 1 0.5174 1 1 1 10 200 1950
33 33 1 0.4929 0 0 1 10 210 1700
33 34 1 0.4929 0 0 1 10 220 616
33 35 1 0.4929 0 0 1 10 230 983
33 36 1 0.4929 0 0 1 10 240 816
33 37 1 0.5174 1 0 0 0 240 2233
33 38 1 0.4929 0 0 1 10 250 783
33 39 1 0.4929 0 0 1 10 260 1216
33 40 1 0.5174 1 1 1 10 270 783
33 41 1 0.5174 1 1 1 10 280 816
33 42 1 0.4929 0 1 0 0 280 883
33 43 1 0.4929 0 0 1 10 290 1166
33 44 1 0.4929 0 0 1 10 300 1650
33 45 1 0.5174 1 0 0 0 300 1566
33 46 1 0.4929 0 0 1 10 310 650
33 47 1 0.5174 1 1 1 10 320 1116
33 48 1 0.5174 1 1 1 10 330 1250
33 49 1 0.4929 0 0 1 10 340 1466
33 50 1 0.5174 1 0 0 0 340 783
33 51 1 0.4929 0 0 1 10 350 1300
33 52 1 0.4929 0 1 0 0 350 2050
33 53 1 0.4929 0 0 1 10 360 1133
33 54 1 0.5174 1 1 1 10 370 2217
33 55 1 0.5174 1 1 1 10 380 1450
33 56 1 0.4929 0 0 1 10 390 2433
33 57 1 0.5174 1 1 1 10 400 1266
33 58 1 0.4929 0 1 0 0 400 1516
33 59 1 0.5174 1 1 1 10 410 1216
33 60 1 0.4929 0 0 1 10 420 1900
33 61 1 0.5174 1 1 1 10 430 983
33 62 1 0.4929 0 1 0 0 430 1433
33 63 1 0.5174 1 0 0 0 430 1850
33 64 1 0.4929 0 0 1 10 440 1216
33 65 1 0.5174 1 1 1 10 450 1666
33 66 1 0.5174 1 1 1 10 460 1716
33 67 1 0.4929 0 0 1 10 470 866
33 68 1 0.4929 0 1 0 0 470 1083
33 69 1 0.4929 0 0 1 10 480 1316
33 70 1 0.4929 0 0 1 10 490 2916
33 71 1 0.5174 1 1 1 10 500 1683
33 72 1 0.5174 1 1 1 10 510 1600
33 73 1 0.5174 1 1 1 10 520 1833
33 74 1 0.5174 1 1 1 10 530 1300
33 75 1 0.5174 1 1 1 10 540 1350
33 76 1 0.5174 1 1 1 10 550 1383
33 77 1 0.4929 0 1 0 0 550 2083
33 78 1 0.5174 1 1 1 10 560 1416
33 79 1 0.4929 0 0 1 10 570 2300
33 80 1 0.5174 1 1 1 10 580 2466
33 81 1 0.5174 1 1 1 10 590 1033
33 82 1 0.5174 1 1 1 10 600 1466
33 83 1 0.4929 0 1 0 0 600 1966
33 84 1 0.4929 0 0 1 10 610 1100
33 85 1 0.4929 0 0 1 10 620 1716
33 86 1 0.5174 1 0 0 0 620 783
33 87 1 0.4929 0 0 1 10 630 1066
33 88 1 0.5174 1 1 1 10 640 1066
33 89 1 0.5174 1 1 1 10 650 1716
33 90 1 0.5174 1 1 1 10 660 2366
33 91 1 0.4929 0 1 0 0 660 1066
33 92 1 0.5174 1 1 1 10 670 1433
33 93 1 0.4929 0 0 1 10 680 933
33 94 1 0.5174 1 1 1 10 690 1200
33 95 1 0.4929 0 1 0 0 690 1800
33 96 1 0.4929 0 0 1 10 700 1033
33 97 1 0.4929 0 0 1 10 710 1616
33 98 1 0.5174 1 1 1 10 720 2000
33 99 1 0.4929 0 1 0 0 720 966
33 100 1 0.5174 1 1 1 10 730 1083
33 101 0 0.4929 0 1 0 0 730 1750
33 102 0 0.5174 1 0 0 0 730 1733
33 103 0 0.4929 0 0 1 10 740 1133
33 104 0 0.4929 0 0 1 10 750 683
33 105 0 0.5174 1 0 0 0 750 650
33 106 0 0.5174 1 0 0 0 750 1666
33 107 0 0.4929 0 0 1 10 760 1216
33 108 0 0.4929 0 0 1 10 770 1216
33 109 0 0.5174 1 1 1 10 780 1000
33 110 0 0.5174 1 1 1 10 790 2133
33 111 0 0.4929 0 0 1 10 800 816
33 112 0 0.5174 1 1 1 10 810 1366
33 113 0 0.5174 1 0 0 0 810 1300
33 114 0 0.5174 1 1 1 10 820 1516
33 115 0 0.5174 1 1 1 10 830 766
33 116 0 0.5174 1 1 1 10 840 966
33 117 0 0.4929 0 0 1 10 850 633
33 118 0 0.4929 0 1 0 0 850 916
33 119 0 0.5174 1 0 0 0 850 1283
33 120 0 0.4929 0 0 1 10 860 1216
33 121 0 0.4929 0 1 0 0 860 1116
33 122 0 0.5174 1 0 0 0 860 2983
33 123 0 0.5174 1 1 1 10 870 1100
33 124 0 0.5174 1 1 1 10 880 1183
33 125 0 0.4929 0 0 1 10 890 1000
33 126 0 0.5174 1 0 0 0 890 2116
33 127 0 0.5174 1 1 1 10 900 833
33 128 0 0.4929 0 1 0 0 900 2433
33 129 0 0.4929 0 0 1 10 910 1216
33 130 0 0.5174 1 0 0 0 910 1650
33 131 0 0.4929 0 1 0 0 910 1000
33 132 0 0.5174 1 1 1 10 920 2566
33 133 0 0.5174 1 1 1 10 930 1450
33 134 0 0.5174 1 1 1 10 940 1983
33 135 0 0.5174 1 1 1 10 950 1433
33 136 0 0.5174 1 1 1 10 960 850
33 137 0 0.5174 1 1 1 10 970 566
33 138 0 0.4929 0 0 1 10 980 1150
33 139 0 0.5174 1 1 1 10 990 1350
33 140 0 0.4929 0 1 0 0 990 716
33 141 0 0.4929 0 1 0 0 990 1050
33 142 0 0.5174 1 0 0 0 990 2833
33 143 0 0.4929 0 1 0 0 990 1366
33 144 0 0.4929 0 0 1 10 1000 1216
33 145 0 0.4929 0 0 1 10 1010 1433
33 146 0 0.4929 0 0 1 10 1020 550
33 147 0 0.5174 1 0 0 0 1020 2683
33 148 0 0.4929 0 0 1 10 1030 1383
33 149 0 0.4929 0 0 1 10 1040 666
33 150 0 0.5174 1 0 0 0 1040 1416
33 151 0 0.5174 1 0 0 0 1040 1283
33 152 0 0.4929 0 0 1 10 1050 1233
33 153 0 0.4929 0 0 1 10 1060 766
33 154 0 0.5174 1 0 0 0 1060 600
33 155 0 0.4929 0 0 1 10 1070 1150
33 156 0 0.4929 0 0 1 10 1080 1066
33 157 0 0.5174 1 0 0 0 1080 566
33 158 0 0.5174 1 0 0 0 1080 1400
33 159 0 0.5174 1 0 0 0 1080 983
33 160 0 0.4929 0 1 0 0 1080 733
33 161 0 0.5174 1 1 1 10 1090 2466
33 162 0 0.5174 1 1 1 10 1100 1883
33 163 0 0.4929 0 0 1 10 1110 1250
33 164 0 0.5174 1 1 1 10 1120 1166
33 165 0 0.4929 0 1 0 0 1120 2416
33 166 0 0.4929 0 1 0 0 1120 1716
33 167 0 0.4929 0 0 1 10 1130 1000
33 168 0 0.4929 0 1 0 0 1130 1016
33 169 0 0.4929 0 1 0 0 1130 983
33 170 0 0.4929 0 1 0 0 1130 1116
33 171 0 0.4929 0 0 1 10 1140 3050
33 172 0 0.4929 0 0 1 10 1150 1366
33 173 0 0.5174 1 1 1 10 1160 1433
33 174 0 0.5174 1 1 1 10 1170 1566
33 175 0 0.4929 0 1 0 0 1170 1250
33 176 0 0.4929 0 1 0 0 1170 666
33 177 0 0.5174 1 0 0 0 1170 733
33 178 0 0.5174 1 0 0 0 1170 1783
33 179 0 0.4929 0 0 1 10 1180 1966
33 180 0 0.4929 0 1 0 0 1180 1933
33 181 0 0.4929 0 1 0 0 1180 2050
33 182 0 0.4929 0 0 1 10 1190 1633
33 183 0 0.4929 0 0 1 10 1200 683
33 184 0 0.4929 0 0 1 10 1210 816
33 185 0 0.5174 1 1 1 10 1220 883
33 186 0 0.5174 1 1 1 10 1230 1350
33 187 0 0.4929 0 1 0 0 1230 2416
33 188 0 0.5174 1 1 1 10 1240 1300
33 189 0 0.4929 0 1 0 0 1240 733
33 190 0 0.4929 0 0 1 10 1250 1716
33 191 0 0.5174 1 1 1 10 1260 650
33 192 0 0.5174 1 1 1 10 1270 1450
33 193 0 0.5174 1 1 1 10 1280 883
33 194 0 0.5174 1 1 1 10 1290 950
33 195 0 0.4929 0 1 0 0 1290 633
33 196 0 0.5174 1 1 1 10 1300 666
33 197 0 0.4929 0 0 1 10 1310 1133
33 198 0 0.5174 1 1 1 10 1320 900
33 199 0 0.5174 1 0 0 0 1320 966
33 200 0 0.5174 1 0 0 0 1320 916
