SubNo TrialNo Mapping WhiteProp State Resp Acc Reward Balance ReactionTime
13 1 1 0.4908 0 0 1 10 10 1033
13 2 1 0.4908 0 1 0 0 10 1016
13 3 1 0.5109 1 1 1 10 20 1150
13 4 1 0.4908 0 1 0 0 20 883
13 5 1 0.4908 0 1 0 0 20 950
13 6 1 0.5109 1 0 0 0 20 1000
13 7 1 0.4908 0 1 0 0 20 850
13 8 1 0.4908 0 0 1 10 30 1033
13 9 1 0.5109 1 0 0 0 30 1033
13 10 1 0.5109 1 0 0 0 30 1083
13 11 1 0.5109 1 1 1 10 40 900
13 12 1 0.4908 0 1 0 0 40 1166
13 13 1 0.4908 0 0 1 10 50 633
13 14 1 0.4908 0 0 1 10 60 650
13 15 1 0.4908 0 0 1 10 70 783
13 16 1 0.4908 0 0 1 10 80 700
13 17 1 0.4908 0 0 1 10 90 600
13 18 1 0.5109 1 1 1 10 100 1116
13 19 1 0.4908 0 0 1 10 110 883
13 20 1 0.4908 0 1 0 0 110 1200
13 21 1 0.4908 0 0 1 10 120 700
13 22 1 0.5109 1 1 1 10 130 783
13 23 1 0.4908 0 0 1 10 140 1083
13 24 1 0.4908 0 0 1 10 150 1033
13 25 1 0.5109 1 0 0 0 150 933
13 26 1 0.5109 1 1 1 10 160 883
13 27 1 0.5109 1 1 1 10 170 1467
13 28 1 0.5109 1 0 0 0 170 533
13 29 1 0.4908 0 0 1 10 180 866
13 30 1 0.5109 1 1 1 10 190 716
13 31 1 0.4908 0 1 0 0 190 1866
13 32 1 0.5109 1 1 1 10 200 1200
13 33 1 0.5109 1 0 0 0 200 650
13 34 1 0.4908 0 0 1 10 210 616
13 35 1 0.5109 1 0 0 0 210 1133
13 36 1 0.4908 0 0 1 10 220 833
13 37 1 0.5109 1 1 1 10 230 533
13 38 1 0.4908 0 0 1 10 240 650
13 39 1 0.5109 1 1 1 10 250 1083
13 40 1 0.4908 0 1 0 0 250 2450
13 41 1 0.5109 1 1 1 10 260 700
13 42 1 0.5109 1 1 1 10 270 933
13 43 1 0.4908 0 0 1 10 280 666
13 44 1 0.4908 0 1 0 0 280 1550
13 45 1 0.5109 1 1 1 10 290 866
13 46 1 0.4908 0 0 1 10 300 800
13 47 1 0.5109 1 0 0 0 300 750
13 48 1 0.5109 1 1 1 10 310 700
13 49 1 0.5109 1 1 1 10 320 716
13 50 1 0.4908 0 1 0 0 320 800
13 51 1 0.5109 1 0 0 0 320 650
13 52 1 0.5109 1 0 0 0 320 600
13 53 1 0.4908 0 0 1 10 330 733
13 54 1 0.4908 0 1 0 0 330 866
13 55 1 0.5109 1 1 1 10 340 716
13 56 1 0.4908 0 0 1 10 350 1050
13 57 1 0.5109 1 0 0 0 350 683
13 58 1 0.5109 1 1 1 10 360 600
13 59 1 0.4908 0 1 0 0 360 750
13 60 1 0.5109 1 1 1 10 370 966
13 61 1 0.4908 0 1 0 0 370 716
13 62 1 0.5109 1 1 1 10 380 683
13 63 1 0.4908 0 1 0 0 380 800
13 64 1 0.4908 0 1 0 0 380 700
13 65 1 0.5109 1 1 1 10 390 583
13 66 1 0.5109 1 1 1 10 400 1066
13 67 1 0.4908 0 0 1 10 410 683
13 68 1 0.4908 0 0 1 10 420 666
13 69 1 0.4908 0 0 1 10 430 716
13 70 1 0.5109 1 0 0 0 430 800
13 71 1 0.5109 1 1 1 10 440 550
13 72 1 0.4908 0 0 1 10 450 733
13 73 1 0.5109 1 1 1 10 460 783
13 74 1 0.5109 1 1 1 10 470 550
13 75 1 0.4908 0 1 0 0 470 950
13 76 1 0.5109 1 1 1 10 480 733
13 77 1 0.4908 0 0 1 10 490 633
13 78 1 0.5109 1 1 1 10 500 666
13 79 1 0.5109 1 1 1 10 510 616
13 80 1 0.4908 0 1 0 0 510 783
13 81 1 0.4908 0 0 1 10 520 533
13 82 1 0.5109 1 1 1 10 530 916
13 83 1 0.5109 1 0 0 0 530 733
13 84 1 0.5109 1 0 0 0 530 616
13 85 1 0.4908 0 1 0 0 530 666
13 86 1 0.5109 1 1 1 10 540 766
13 87 1 0.5109 1 0 0 0 540 533
13 88 1 0.4908 0 0 1 10 550 833
13 89 1 0.5109 1 0 0 0 550 966
13 90 1 0.4908 0 1 0 0 550 950
13 91 1 0.5109 1 1 1 10 560 2633
13 92 1 0.5109 1 1 1 10 570 933
13 93 1 0.5109 1 0 0 0 570 1416
13 94 1 0.4908 0 1 0 0 570 1616
13 95 1 0.5109 1 1 1 10 580 683
13 96 1 0.4908 0 1 0 0 580 683
13 97 1 0.4908 0 1 0 0 580 600
13 98 1 0.4908 0 0 1 10 590 900
13 99 1 0.5109 1 0 0 0 590 1400
13 100 1 0.4908 0 0 1 10 600 800
13 101 0 0.5109 1 0 0 0 600 716
13 102 0 0.5109 1 1 1 10 610 783
13 103 0 0.4908 0 1 0 0 610 750
13 104 0 0.5109 1 0 0 0 610 750
13 105 0 0.4908 0 1 0 0 610 1100
13 106 0 0.4908 0 0 1 10 620 700
13 107 0 0.4908 0 0 1 10 630 866
13 108 0 0.4908 0 0 1 10 640 633
13 109 0 0.5109 1 0 0 0 640 600
13 110 0 0.4908 0 0 1 10 650 933
13 111 0 0.4908 0 0 1 10 660 666
13 112 0 0.5109 1 0 0 0 660 633
13 113 0 0.4908 0 0 1 10 670 583
13 114 0 0.4908 0 1 0 0 670 817
13 115 0 0.5109 1 0 0 0 670 666
13 116 0 0.4908 0 0 1 10 680 616
13 117 0 0.5109 1 0 0 0 680 583
13 118 0 0.4908 0 0 1 10 690 516
13 119 0 0.4908 0 0 1 10 700 633
13 120 0 0.5109 1 1 1 10 710 950
13 121 0 0.4908 0 0 1 10 720 600
13 122 0 0.4908 0 0 1 10 730 1133
13 123 0 0.5109 1 1 1 10 740 750
13 124 0 0.4908 0 0 1 10 750 1033
13 125 0 0.5109 1 1 1 10 760 966
13 126 0 0.4908 0 1 0 0 760 766
13 127 0 0.4908 0 0 1 10 770 583
13 128 0 0.4908 0 0 1 10 780 583
13 129 0 0.4908 0 0 1 10 790 516
13 130 0 0.5109 1 1 1 10 800 566
13 131 0 0.5109 1 1 1 10 810 750
13 132 0 0.5109 1 0 0 0 810 566
13 133 0 0.5109 1 0 0 0 810 633
13 134 0 0.5109 1 1 1 10 820 883
13 135 0 0.5109 1 1 1 10 830 633
13 136 0 0.4908 0 0 1 10 840 816
13 137 0 0.5109 1 1 1 10 850 666
13 138 0 0.4908 0 0 1 10 860 766
13 139 0 0.5109 1 1 1 10 870 666
13 140 0 0.5109 1 0 0 0 870 733
13 141 0 0.5109 1 0 0 0 870 533
13 142 0 0.5109 1 1 1 10 880 600
13 143 0 0.4908 0 1 0 0 880 666
13 144 0 0.5109 1 0 0 0 880 766
13 145 0 0.5109 1 1 1 10 890 533
13 146 0 0.5109 1 1 1 10 900 766
13 147 0 0.5109 1 1 1 10 910 566
13 148 0 0.5109 1 1 1 10 920 883
13 149 0 0.5109 1 0 0 0 920 550
13 150 0 0.5109 1 0 0 0 920 717
13 151 0 0.4908 0 1 0 0 920 800
13 152 0 0.4908 0 0 1 10 930 617
13 153 0 0.4908 0 0 1 10 940 500
13 154 0 0.5109 1 0 0 0 940 733
13 155 0 0.5109 1 0 0 0 940 633
13 156 0 0.4908 0 1 0 0 940 566
13 157 0 0.5109 1 1 1 10 950 616
13 158 0 0.4908 0 0 1 10 960 683
13 159 0 0.5109 1 1 1 10 970 550
13 160 0 0.5109 1 0 0 0 970 1500
13 161 0 0.4908 0 1 0 0 970 550
13 162 0 0.4908 0 0 1 10 980 550
13 163 0 0.5109 1 0 0 0 980 633
13 164 0 0.4908 0 0 1 10 990 616
13 165 0 0.4908 0 0 1 10 1000 733
13 166 0 0.4908 0 0 1 10 1010 583
13 167 0 0.5109 1 0 0 0 1010 566
13 168 0 0.5109 1 1 1 10 1020 750
13 169 0 0.5109 1 1 1 10 1030 783
13 170 0 0.4908 0 1 0 0 1030 650
13 171 0 0.5109 1 0 0 0 1030 783
13 172 0 0.5109 1 1 1 10 1040 633
13 173 0 0.5109 1 1 1 10 1050 733
13 174 0 0.4908 0 1 0 0 1050 616
13 175 0 0.4908 0 0 1 10 1060 583
13 176 0 0.5109 1 0 0 0 1060 900
13 177 0 0.4908 0 0 1 10 1070 550
13 178 0 0.4908 0 1 0 0 1070 700
13 179 0 0.5109 1 1 1 10 1080 800
13 180 0 0.5109 1 1 1 10 1090 1033
13 181 0 0.4908 0 0 1 10 1100 583
13 182 0 0.4908 0 1 0 0 1100 816
13 183 0 0.4908 0 0 1 10 1110 666
13 184 0 0.5109 1 1 1 10 1120 1116
13 185 0 0.5109 1 1 1 10 1130 650
13 186 0 0.4908 0 0 1 10 1140 583
13 187 0 0.4908 0 1 0 0 1140 700
13 188 0 0.4908 0 1 0 0 1140 600
13 189 0 0.4908 0 0 1 10 1150 600
13 190 0 0.4908 0 0 1 10 1160 750
13 191 0 0.5109 1 1 1 10 1170 983
13 192 0 0.4908 0 0 1 10 1180 666
13 193 0 0.5109 1 1 1 10 1190 516
13 194 0 0.4908 0 0 1 10 1200 616
13 195 0 0.4908 0 1 0 0 1200 716
13 196 0 0.5109 1 1 1 10 1210 600
13 197 0 0.5109 1 1 1 10 1220 516
13 198 0 0.4908 0 1 0 0 1220 583
13 199 0 0.4908 0 0 1 10 1230 683
13 200 0 0.5109 1 0 0 0 1230 550
