SubNo TrialNo Mapping State Resp Acc Reward Balance ReactionTime
30 1 1 1 0 0 0 0 2550
30 2 1 1 1 1 10 10 2450
30 3 1 0 0 1 10 20 7100
30 4 1 0 0 1 10 30 4116
30 5 1 0 0 1 10 40 2533
30 6 1 1 1 1 10 50 1583
30 7 1 0 0 1 10 60 2883
30 8 1 0 0 1 0 60 1416
30 9 1 0 1 0 10 70 1350
30 10 1 1 0 0 10 80 4333
30 11 1 0 1 0 0 80 1500
30 12 1 1 0 0 0 80 2883
30 13 1 1 1 1 0 80 1500
30 14 1 1 0 0 0 80 1616
30 15 1 1 1 1 10 90 1900
30 16 1 1 1 1 10 100 1366
30 17 1 0 0 1 10 110 1250
30 18 1 0 0 1 0 110 1083
30 19 1 0 1 0 0 110 1133
30 20 1 0 0 1 0 110 2683
30 21 1 1 1 1 10 120 7066
30 22 1 0 0 1 0 120 1733
30 23 1 0 0 1 10 130 2600
30 24 1 1 1 1 0 130 1216
30 25 1 1 1 1 10 140 3500
30 26 1 0 0 1 10 150 6266
30 27 1 0 1 0 0 150 1683
30 28 1 0 0 1 10 160 1716
30 29 1 1 1 1 10 170 1850
30 30 1 0 0 1 10 180 983
30 31 1 0 0 1 10 190 4650
30 32 1 0 0 1 0 190 3500
30 33 1 0 1 0 0 190 1300
30 34 1 1 0 0 10 200 6300
30 35 1 0 1 0 10 210 1933
30 36 1 0 1 0 0 210 1350
30 37 1 0 1 0 10 220 2050
30 38 1 1 0 0 0 220 5933
30 39 1 1 1 1 0 220 5966
30 40 1 1 0 0 10 230 2783
30 41 1 1 0 0 10 240 2650
30 42 1 0 1 0 0 240 2716
30 43 1 1 0 0 0 240 1966
30 44 1 1 0 0 10 250 4566
30 45 1 1 0 0 10 260 2450
30 46 1 1 0 0 10 270 1783
30 47 1 1 0 0 10 280 1583
30 48 1 1 0 0 10 290 1000
30 49 1 1 0 0 10 300 1183
30 50 1 0 1 0 10 310 3067
30 51 1 0 1 0 0 310 1450
30 52 1 0 0 1 10 320 3366
30 53 1 1 0 0 0 320 2533
30 54 1 1 1 1 10 330 1166
30 55 1 0 0 1 0 330 3183
30 56 1 1 0 0 0 330 1616
30 57 1 0 1 0 0 330 4366
30 58 1 1 0 0 10 340 2333
30 59 1 1 0 0 0 340 2900
30 60 1 1 0 0 10 350 866
30 61 1 1 0 0 0 350 1383
30 62 1 0 1 0 0 350 4716
30 63 1 1 0 0 0 350 1333
30 64 1 1 1 1 10 360 2466
30 65 1 1 1 1 10 370 2416
30 66 1 0 0 1 10 380 1300
30 67 1 1 1 1 10 390 1783
30 68 1 0 0 1 10 400 1166
30 69 1 1 1 1 0 400 2433
30 70 1 1 0 0 10 410 1200
30 71 1 0 1 0 0 410 1550
30 72 1 0 0 1 10 420 833
30 73 1 0 0 1 10 430 950
30 74 1 1 1 1 10 440 1100
30 75 1 0 0 1 10 450 1116
30 76 1 1 1 1 10 460 1316
30 77 1 0 0 1 0 460 2400
30 78 1 0 0 1 10 470 2050
30 79 1 0 0 1 10 480 1233
30 80 1 1 1 1 10 490 983
30 81 1 1 1 1 10 500 1366
30 82 1 1 1 1 10 510 1350
30 83 1 1 1 1 10 520 1316
30 84 1 1 1 1 0 520 883
30 85 1 0 0 1 10 530 916
30 86 1 0 0 1 10 540 883
30 87 1 0 0 1 0 540 1466
30 88 1 0 1 0 0 540 966
30 89 1 1 0 0 0 540 1200
30 90 1 0 0 1 10 550 2816
30 91 1 1 1 1 0 550 4116
30 92 1 0 0 1 10 560 1750
30 93 1 0 0 1 10 570 1500
30 94 1 1 1 1 10 580 2950
30 95 1 0 0 1 10 590 750
30 96 1 0 0 1 10 600 1550
30 97 1 1 1 1 0 600 1333
30 98 1 0 0 1 10 610 1000
30 99 1 1 0 0 10 620 1066
30 100 1 0 0 1 10 630 1600
30 101 0 1 1 1 10 640 1116
30 102 0 1 1 1 10 650 1516
30 103 0 0 1 0 0 650 933
30 104 0 0 0 1 10 660 1033
30 105 0 0 0 1 10 670 1516
30 106 0 0 0 1 10 680 866
30 107 0 1 1 1 10 690 916
30 108 0 1 1 1 10 700 1050
30 109 0 0 0 1 10 710 1016
30 110 0 0 0 1 10 720 850
30 111 0 1 1 1 10 730 1816
30 112 0 0 0 1 10 740 816
30 113 0 1 1 1 10 750 1400
30 114 0 1 1 1 10 760 1383
30 115 0 1 1 1 10 770 1383
30 116 0 1 1 1 10 780 1433
30 117 0 0 0 1 10 790 1016
30 118 0 0 0 1 10 800 750
30 119 0 1 1 1 10 810 933
30 120 0 1 1 1 10 820 916
30 121 0 0 0 1 10 830 1116
30 122 0 0 0 1 10 840 716
30 123 0 0 0 1 10 850 3166
30 124 0 0 0 1 0 850 716
30 125 0 1 0 0 10 860 4600
30 126 0 0 0 1 10 870 1283
30 127 0 1 0 0 0 870 666
30 128 0 0 0 1 0 870 1166
30 129 0 1 1 1 10 880 1316
30 130 0 1 1 1 10 890 1283
30 131 0 1 1 1 10 900 766
30 132 0 0 0 1 10 910 550
30 133 0 1 1 1 10 920 1166
30 134 0 0 0 1 10 930 950
30 135 0 1 1 1 10 940 1333
30 136 0 1 1 1 10 950 1083
30 137 0 0 0 1 10 960 1450
30 138 0 0 0 1 10 970 1166
30 139 0 0 0 1 10 980 2066
30 140 0 1 1 1 0 980 600
30 141 0 1 0 0 0 980 1216
30 142 0 0 0 1 10 990 3483
30 143 0 0 0 1 10 1000 700
30 144 0 0 0 1 10 1010 1266
30 145 0 0 0 1 10 1020 1050
30 146 0 0 0 1 0 1020 1200
30 147 0 0 1 0 0 1020 933
30 148 0 0 1 0 0 1020 2700
30 149 0 0 1 0 0 1020 1083
30 150 0 1 1 1 10 1030 1416
30 151 0 1 1 1 0 1030 783
30 152 0 1 0 0 10 1040 1116
30 153 0 1 0 0 0 1040 1383
30 154 0 0 1 0 0 1040 1500
30 155 0 1 1 1 10 1050 1816
30 156 0 0 0 1 10 1060 800
30 157 0 1 1 1 10 1070 1366
30 158 0 1 1 1 0 1070 1116
30 159 0 0 1 0 0 1070 1700
30 160 0 1 0 0 0 1070 1616
30 161 0 0 1 0 10 1080 1000
30 162 0 1 0 0 0 1080 1300
30 163 0 0 1 0 0 1080 1183
30 164 0 0 1 0 0 1080 1083
30 165 0 0 0 1 10 1090 750
30 166 0 0 0 1 0 1090 700
30 167 0 1 0 0 10 1100 1250
30 168 0 0 1 0 10 1110 1083
30 169 0 1 0 0 0 1110 1083
30 170 0 1 1 1 10 1120 1200
30 171 0 1 1 1 10 1130 983
30 172 0 1 1 1 10 1140 933
30 173 0 1 1 1 10 1150 1433
30 174 0 1 1 1 0 1150 1183
30 175 0 0 1 0 0 1150 1250
30 176 0 0 0 1 0 1150 1333
30 177 0 0 1 0 0 1150 700
30 178 0 0 0 1 0 1150 1500
30 179 0 0 1 0 0 1150 783
30 180 0 1 0 0 0 1150 833
30 181 0 0 0 1 10 1160 1366
30 182 0 1 1 1 10 1170 1366
30 183 0 0 0 1 10 1180 900
30 184 0 0 0 1 0 1180 1433
30 185 0 1 1 1 0 1180 1850
30 186 0 1 1 1 10 1190 783
30 187 0 0 0 1 10 1200 1383
30 188 0 1 1 1 10 1210 983
30 189 0 1 1 1 10 1220 2533
30 190 0 1 1 1 10 1230 700
30 191 0 0 0 1 0 1230 983
30 192 0 0 1 0 10 1240 916
30 193 0 1 0 0 0 1240 1716
30 194 0 0 1 0 0 1240 933
30 195 0 0 1 0 0 1240 1750
30 196 0 1 1 1 10 1250 1016
30 197 0 1 1 1 10 1260 883
30 198 0 1 1 1 10 1270 1250
30 199 0 1 1 1 0 1270 1166
30 200 0 1 0 0 0 1270 650