SubNo TrialNo Mapping State Resp Acc Reward Balance ReactionTime
12 1 1 0 0 1 0 0 1844
12 2 1 1 0 0 0 0 782
12 3 1 1 1 1 10 10 1450
12 4 1 0 1 0 0 10 1016
12 5 1 0 0 1 10 20 1044
12 6 1 1 0 0 0 20 1500
12 7 1 0 0 1 10 30 1083
12 8 1 0 0 1 10 40 1016
12 9 1 0 0 1 0 40 716
12 10 1 1 1 1 0 40 966
12 11 1 1 0 0 0 40 1083
12 12 1 1 1 1 10 50 716
12 13 1 0 1 0 0 50 700
12 14 1 1 0 0 10 60 1116
12 15 1 0 1 0 0 60 966
12 16 1 0 0 1 10 70 1083
12 17 1 0 0 1 10 80 650
12 18 1 1 0 0 0 80 1200
12 19 1 0 0 1 10 90 733
12 20 1 0 0 1 0 90 733
12 21 1 1 1 1 0 90 1500
12 22 1 0 1 0 0 90 983
12 23 1 1 0 0 0 90 833
12 24 1 0 0 1 0 90 1533
12 25 1 0 1 0 0 90 950
12 26 1 1 1 1 0 90 1666
12 27 1 0 1 0 0 90 717
12 28 1 1 0 0 10 100 700
12 29 1 1 0 0 0 100 900
12 30 1 0 0 1 10 110 716
12 31 1 0 0 1 10 120 650
12 32 1 1 1 1 10 130 783
12 33 1 1 1 1 0 130 633
12 34 1 0 0 1 10 140 1733
12 35 1 1 0 0 0 140 783
12 36 1 1 1 1 0 140 633
12 37 1 1 0 0 0 140 833
12 38 1 1 1 1 10 150 866
12 39 1 1 1 1 0 150 1650
12 40 1 0 0 1 10 160 983
12 41 1 1 0 0 10 170 666
12 42 1 1 0 0 10 180 816
12 43 1 1 0 0 10 190 700
12 44 1 1 0 0 0 190 1600
12 45 1 0 0 1 10 200 1566
12 46 1 1 1 1 10 210 683
12 47 1 1 1 1 0 210 800
12 48 1 1 0 0 10 220 667
12 49 1 0 0 1 0 220 1683
12 50 1 0 1 0 0 220 683
12 51 1 1 0 0 0 220 733
12 52 1 1 1 1 10 230 783
12 53 1 1 1 1 10 240 983
12 54 1 0 0 1 10 250 750
12 55 1 1 1 1 10 260 766
12 56 1 0 0 1 10 270 633
12 57 1 1 1 1 10 280 733
12 58 1 1 1 1 10 290 783
12 59 1 0 0 1 10 300 1166
12 60 1 0 0 1 10 310 666
12 61 1 1 1 1 10 320 750
12 62 1 0 0 1 10 330 516
12 63 1 0 0 1 10 340 700
12 64 1 1 1 1 10 350 766
12 65 1 0 0 1 10 360 750
12 66 1 0 0 1 10 370 800
12 67 1 0 0 1 10 380 616
12 68 1 1 1 1 10 390 583
12 69 1 1 1 1 10 400 750
12 70 1 1 1 1 0 400 716
12 71 1 1 0 0 0 400 833
12 72 1 0 0 1 0 400 783
12 73 1 0 1 0 10 410 566
12 74 1 0 1 0 0 410 666
12 75 1 0 0 1 10 420 816
12 76 1 0 0 1 10 430 683
12 77 1 1 1 1 0 430 750
12 78 1 0 0 1 10 440 716
12 79 1 1 0 0 0 440 800
12 80 1 1 1 1 10 450 983
12 81 1 0 0 1 0 450 983
12 82 1 1 0 0 0 450 1116
12 83 1 0 1 0 0 450 566
12 84 1 0 0 1 10 460 600
12 85 1 1 1 1 10 470 700
12 86 1 0 0 1 0 470 933
12 87 1 0 1 0 0 470 1350
12 88 1 0 0 1 10 480 916
12 89 1 0 0 1 10 490 716
12 90 1 1 1 1 0 490 633
12 91 1 1 0 0 0 490 500
12 92 1 0 0 1 10 500 1166
12 93 1 0 0 1 10 510 666
12 94 1 1 1 1 10 520 716
12 95 1 0 0 1 10 530 700
12 96 1 0 0 1 0 530 900
12 97 1 1 1 1 10 540 583
12 98 1 0 1 0 0 540 816
12 99 1 1 1 1 10 550 833
12 100 1 1 1 1 10 560 816
12 101 0 0 1 0 0 560 900
12 102 0 0 1 0 0 560 1100
12 103 0 1 1 1 10 570 1100
12 104 0 0 0 1 10 580 750
12 105 0 1 1 1 0 580 650
12 106 0 1 0 0 0 580 1083
12 107 0 1 1 1 10 590 600
12 108 0 1 1 1 0 590 600
12 109 0 1 1 1 10 600 600
12 110 0 1 1 1 0 600 700
12 111 0 1 0 0 0 600 616
12 112 0 0 0 1 10 610 783
12 113 0 0 0 1 10 620 583
12 114 0 0 0 1 10 630 783
12 115 0 0 0 1 10 640 833
12 116 0 0 0 1 10 650 683
12 117 0 1 1 1 10 660 666
12 118 0 1 1 1 10 670 716
12 119 0 0 0 1 10 680 616
12 120 0 0 0 1 10 690 600
12 121 0 1 1 1 10 700 500
12 122 0 1 1 1 10 710 816
12 123 0 0 0 1 0 710 683
12 124 0 1 1 1 0 710 900
12 125 0 0 1 0 0 710 600
12 126 0 0 0 1 10 720 816
12 127 0 0 0 1 10 730 666
12 128 0 1 1 1 0 730 733
12 129 0 1 0 0 0 730 550
12 130 0 0 0 1 10 740 650
12 131 0 1 1 1 0 740 650
12 132 0 0 0 1 10 750 700
12 133 0 1 1 1 10 760 683
12 134 0 0 0 1 10 770 983
12 135 0 1 1 1 10 780 516
12 136 0 1 1 1 10 790 1150
12 137 0 0 0 1 10 800 900
12 138 0 0 0 1 10 810 683
12 139 0 0 0 1 10 820 566
12 140 0 0 0 1 10 830 666
12 141 0 0 0 1 10 840 700
12 142 0 0 0 1 0 840 866
12 143 0 0 1 0 0 840 650
12 144 0 1 0 0 0 840 916
12 145 0 0 0 1 10 850 816
12 146 0 1 1 1 10 860 766
12 147 0 0 0 1 10 870 633
12 148 0 0 0 1 10 880 716
12 149 0 0 0 1 10 890 650
12 150 0 0 0 1 0 890 700
12 151 0 1 1 1 0 890 700
12 152 0 0 1 0 10 900 816
12 153 0 0 1 0 0 900 550
12 154 0 1 1 1 10 910 816
12 155 0 1 1 1 10 920 500
12 156 0 1 1 1 10 930 716
12 157 0 0 0 1 0 930 833
12 158 0 1 1 1 10 940 783
12 159 0 0 1 0 10 950 683
12 160 0 1 1 1 10 960 600
12 161 0 0 1 0 0 960 633
12 162 0 0 0 1 0 960 583
12 163 0 1 1 1 10 970 1416
12 164 0 1 1 1 10 980 650
12 165 0 0 1 0 0 980 1450
12 166 0 1 1 1 10 990 616
12 167 0 1 1 1 10 1000 950
12 168 0 1 1 1 10 1010 783
12 169 0 1 1 1 10 1020 600
12 170 0 1 1 1 10 1030 566
12 171 0 1 1 1 0 1030 783
12 172 0 1 0 0 0 1030 516
12 173 0 0 1 0 10 1040 866
12 174 0 1 1 1 0 1040 633
12 175 0 0 1 0 10 1050 1033
12 176 0 1 0 0 0 1050 733
12 177 0 1 1 1 10 1060 966
12 178 0 0 1 0 0 1060 1433
12 179 0 0 1 0 0 1060 833
12 180 0 0 1 0 0 1060 850
12 181 0 1 1 1 10 1070 1150
12 182 0 1 1 1 10 1080 700
12 183 0 1 1 1 10 1090 1483
12 184 0 1 0 0 0 1090 933
12 185 0 0 0 1 0 1090 583
12 186 0 0 1 0 10 1100 616
12 187 0 0 1 0 10 1110 733
12 188 0 1 0 0 0 1110 850
12 189 0 1 1 1 10 1120 650
12 190 0 0 1 0 0 1120 733
12 191 0 0 1 0 10 1130 766
12 192 0 1 1 1 0 1130 1250
12 193 0 1 0 0 10 1140 1100
12 194 0 0 1 0 0 1140 950
12 195 0 1 0 0 0 1140 916
12 196 0 0 1 0 10 1150 1017
12 197 0 0 1 0 0 1150 766
12 198 0 0 0 1 0 1150 700
12 199 0 1 1 1 10 1160 633
12 200 0 1 1 1 10 1170 716
