SubNo TrialNo Mapping State Resp Acc Reward Balance ReactionTime
27 1 1 0 1 0 0 0 1629
27 2 1 1 1 1 10 10 1349
27 3 1 0 0 1 0 10 1117
27 4 1 0 0 1 10 20 3032
27 5 1 0 0 1 0 20 827
27 6 1 0 1 0 0 20 1017
27 7 1 1 1 1 10 30 3233
27 8 1 0 1 0 0 30 2583
27 9 1 1 1 1 10 40 2166
27 10 1 0 0 1 10 50 1466
27 11 1 0 1 0 0 50 1766
27 12 1 1 1 1 10 60 3766
27 13 1 1 1 1 10 70 1400
27 14 1 1 1 1 0 70 1683
27 15 1 1 0 0 0 70 1000
27 16 1 0 0 1 10 80 2766
27 17 1 1 1 1 10 90 1433
27 18 1 0 0 1 10 100 1333
27 19 1 0 0 1 10 110 1233
27 20 1 0 0 1 10 120 967
27 21 1 1 1 1 0 120 1000
27 22 1 1 0 0 0 120 900
27 23 1 1 1 1 0 120 1133
27 24 1 1 0 0 10 130 2300
27 25 1 0 1 0 0 130 3350
27 26 1 0 0 1 10 140 550
27 27 1 0 0 1 0 140 1800
27 28 1 0 1 0 0 140 733
27 29 1 0 0 1 10 150 1483
27 30 1 1 1 1 10 160 2316
27 31 1 0 1 0 0 160 3466
27 32 1 0 0 1 0 160 1400
27 33 1 1 0 0 0 160 1266
27 34 1 0 0 1 10 170 2483
27 35 1 0 0 1 10 180 1000
27 36 1 1 1 1 10 190 1483
27 37 1 0 0 1 10 200 2566
27 38 1 1 1 1 10 210 833
27 39 1 1 1 1 10 220 1000
27 40 1 1 1 1 10 230 1466
27 41 1 1 1 1 0 230 900
27 42 1 1 0 0 10 240 700
27 43 1 1 0 0 0 240 1633
27 44 1 0 0 1 0 240 1100
27 45 1 0 1 0 10 250 1216
27 46 1 1 0 0 10 260 3183
27 47 1 1 0 0 0 260 2016
27 48 1 1 1 1 0 260 716
27 49 1 1 0 0 0 260 766
27 50 1 1 1 1 0 260 883
27 51 1 0 0 1 10 270 1383
27 52 1 0 0 1 10 280 833
27 53 1 0 0 1 0 280 1150
27 54 1 0 1 0 0 280 650
27 55 1 0 1 0 10 290 800
27 56 1 0 0 1 10 300 1116
27 57 1 1 1 1 0 300 1200
27 58 1 1 0 0 10 310 816
27 59 1 0 1 0 10 320 1500
27 60 1 0 1 0 0 320 1983
27 61 1 1 1 1 10 330 3150
27 62 1 1 1 1 10 340 1783
27 63 1 1 1 1 10 350 2083
27 64 1 0 0 1 10 360 1166
27 65 1 0 1 0 10 370 2233
27 66 1 0 1 0 0 370 883
27 67 1 0 0 1 10 380 733
27 68 1 1 1 1 10 390 1616
27 69 1 0 0 1 10 400 1016
27 70 1 1 1 1 10 410 933
27 71 1 1 1 1 10 420 1483
27 72 1 1 1 1 10 430 916
27 73 1 1 1 1 0 430 1166
27 74 1 1 0 0 0 430 866
27 75 1 0 0 1 10 440 1383
27 76 1 1 1 1 10 450 1566
27 77 1 1 1 1 10 460 966
27 78 1 0 0 1 0 460 883
27 79 1 0 1 0 10 470 733
27 80 1 1 0 0 0 470 1016
27 81 1 0 0 1 0 470 2166
27 82 1 1 0 0 10 480 1416
27 83 1 1 0 0 10 490 716
27 84 1 1 0 0 0 490 700
27 85 1 1 1 1 10 500 1550
27 86 1 1 0 0 0 500 1300
27 87 1 1 1 1 10 510 833
27 88 1 0 0 1 0 510 2450
27 89 1 1 0 0 10 520 2516
27 90 1 0 1 0 0 520 1083
27 91 1 0 0 1 10 530 866
27 92 1 0 0 1 10 540 1050
27 93 1 1 1 1 0 540 5300
27 94 1 1 1 1 10 550 800
27 95 1 0 0 1 10 560 1383
27 96 1 0 0 1 0 560 1166
27 97 1 0 1 0 0 560 916
27 98 1 0 0 1 10 570 1583
27 99 1 0 0 1 10 580 1366
27 100 1 1 1 1 0 580 1516
27 101 0 0 0 1 10 590 6600
27 102 0 1 1 1 10 600 4483
27 103 0 0 0 1 10 610 816
27 104 0 1 1 1 10 620 766
27 105 0 1 1 1 10 630 900
27 106 0 1 1 1 10 640 750
27 107 0 0 0 1 10 650 1133
27 108 0 1 1 1 10 660 716
27 109 0 1 1 1 10 670 700
27 110 0 1 1 1 0 670 1716
27 111 0 0 1 0 10 680 766
27 112 0 1 0 0 0 680 1783
27 113 0 1 1 1 10 690 866
27 114 0 0 0 1 10 700 1550
27 115 0 0 0 1 10 710 1150
27 116 0 0 0 1 10 720 966
27 117 0 1 1 1 10 730 983
27 118 0 1 1 1 10 740 900
27 119 0 1 1 1 10 750 1283
27 120 0 0 0 1 10 760 883
27 121 0 0 0 1 10 770 1183
27 122 0 1 1 1 10 780 983
27 123 0 0 0 1 10 790 1050
27 124 0 1 1 1 10 800 1050
27 125 0 1 1 1 10 810 1366
27 126 0 0 0 1 10 820 983
27 127 0 0 0 1 10 830 950
27 128 0 0 0 1 10 840 933
27 129 0 0 0 1 0 840 933
27 130 0 1 0 0 10 850 1016
27 131 0 0 1 0 10 860 800
27 132 0 0 1 0 0 860 1066
27 133 0 0 0 1 10 870 1216
27 134 0 0 0 1 10 880 1150
27 135 0 0 0 1 10 890 950
27 136 0 1 1 1 10 900 1950
27 137 0 1 1 1 10 910 800
27 138 0 1 1 1 0 910 883
27 139 0 0 1 0 0 910 1466
27 140 0 1 1 1 0 910 1583
27 141 0 1 1 1 0 910 3833
27 142 0 0 1 0 0 910 1866
27 143 0 0 0 1 0 910 1583
27 144 0 1 1 1 0 910 4500
27 145 0 0 1 0 10 920 1600
27 146 0 1 0 0 0 920 1500
27 147 0 0 1 0 10 930 1850
27 148 0 0 0 1 10 940 1767
27 149 0 1 0 0 10 950 3166
27 150 0 0 0 1 0 950 2150
27 151 0 1 0 0 0 950 1283
27 152 0 0 1 0 0 950 1016
27 153 0 0 0 1 10 960 2083
27 154 0 1 1 1 10 970 1700
27 155 0 1 1 1 10 980 1316
27 156 0 0 0 1 0 980 983
27 157 0 0 1 0 0 980 1033
27 158 0 0 0 1 10 990 866
27 159 0 0 0 1 0 990 1100
27 160 0 1 0 0 0 990 3133
27 161 0 0 0 1 0 990 8033
27 162 0 0 1 0 0 990 1033
27 163 0 0 1 0 10 1000 2700
27 164 0 1 0 0 10 1010 3166
27 165 0 0 1 0 0 1010 3083
27 166 0 0 0 1 0 1010 3950
27 167 0 0 0 1 0 1010 2416
27 168 0 1 0 0 0 1010 3383
27 169 0 1 1 1 10 1020 2450
27 170 0 0 0 1 10 1030 2383
27 171 0 0 0 1 10 1040 2166
27 172 0 1 1 1 0 1040 1316
27 173 0 1 0 0 0 1040 3966
27 174 0 0 0 1 10 1050 1616
27 175 0 1 1 1 10 1060 2433
27 176 0 0 0 1 10 1070 2100
27 177 0 0 0 1 0 1070 2350
27 178 0 1 0 0 0 1070 1266
27 179 0 1 0 0 0 1070 3500
27 180 0 1 1 1 10 1080 2483
27 181 0 1 1 1 0 1080 2833
27 182 0 0 1 0 0 1080 3066
27 183 0 1 1 1 10 1090 3916
27 184 0 1 1 1 0 1090 1633
27 185 0 1 0 0 10 1100 2000
27 186 0 1 1 1 10 1110 1900
27 187 0 0 0 1 10 1120 15766
27 188 0 1 0 0 10 1130 6183
27 189 0 1 0 0 10 1140 4283
27 190 0 1 0 0 0 1140 933
27 191 0 1 1 1 0 1140 900
27 192 0 0 1 0 10 1150 3283
27 193 0 0 1 0 0 1150 2233
27 194 0 1 0 0 0 1150 5466
27 195 0 1 1 1 10 1160 3466
27 196 0 1 0 0 10 1170 2733
27 197 0 1 0 0 0 1170 2183
27 198 0 0 0 1 10 1180 7100
27 199 0 0 1 0 10 1190 5166
27 200 0 0 0 1 10 1200 2816
