SubNo TrialNo Mapping State Resp Acc Reward Balance ReactionTime
9 1 0 0 0 1 10 10 3545
9 2 0 1 1 1 10 20 2400
9 3 0 0 1 0 0 20 1549
9 4 0 0 0 1 0 20 1966
9 5 0 0 1 0 10 30 1577
9 6 0 1 0 0 0 30 1200
9 7 0 0 1 0 0 30 1033
9 8 0 1 0 0 10 40 2250
9 9 0 0 0 1 10 50 1483
9 10 0 0 0 1 10 60 1000
9 11 0 1 1 1 0 60 950
9 12 0 1 0 0 0 60 917
9 13 0 0 1 0 0 60 2867
9 14 0 1 1 1 10 70 3083
9 15 0 1 1 1 10 80 983
9 16 0 1 1 1 10 90 566
9 17 0 1 1 1 10 100 633
9 18 0 0 0 1 0 100 600
9 19 0 0 1 0 0 100 666
9 20 0 1 1 1 0 100 1566
9 21 0 0 1 0 10 110 3483
9 22 0 1 0 0 0 110 1450
9 23 0 0 1 0 10 120 4050
9 24 0 1 0 0 0 120 1233
9 25 0 1 1 1 10 130 483
9 26 0 1 1 1 10 140 533
9 27 0 1 1 1 10 150 466
9 28 0 0 1 0 10 160 650
9 29 0 1 1 1 10 170 1017
9 30 0 1 0 0 0 170 1033
9 31 0 1 0 0 0 170 1667
9 32 0 0 0 1 0 170 766
9 33 0 1 1 1 0 170 950
9 34 0 0 1 0 10 180 1416
9 35 0 0 1 0 0 180 616
9 36 0 1 0 0 0 180 950
9 37 0 1 1 1 10 190 1250
9 38 0 1 1 1 0 190 583
9 39 0 0 1 0 0 190 850
9 40 0 1 0 0 10 200 1183
9 41 0 0 1 0 0 200 683
9 42 0 1 1 1 10 210 816
9 43 0 1 1 1 0 210 616
9 44 0 0 0 1 10 220 2550
9 45 0 0 1 0 0 220 1583
9 46 0 0 0 1 10 230 900
9 47 0 1 1 1 10 240 800
9 48 0 0 1 0 10 250 1333
9 49 0 0 1 0 0 250 1133
9 50 0 0 1 0 10 260 1050
9 51 0 1 1 1 0 260 1666
9 52 0 0 0 1 10 270 1500
9 53 0 1 1 1 0 270 500
9 54 0 1 1 1 10 280 666
9 55 0 0 0 1 10 290 1050
9 56 0 1 1 1 10 300 716
9 57 0 1 1 1 10 310 600
9 58 0 1 1 1 10 320 850
9 59 0 1 0 0 10 330 633
9 60 0 1 0 0 0 330 616
9 61 0 1 1 1 0 330 2050
9 62 0 0 0 1 10 340 1183
9 63 0 0 1 0 0 340 883
9 64 0 0 1 0 0 340 716
9 65 0 0 1 0 10 350 1000
9 66 0 1 0 0 0 350 2250
9 67 0 1 1 1 10 360 1450
9 68 0 0 0 1 10 370 1133
9 69 0 1 1 1 10 380 750
9 70 0 1 1 1 10 390 550
9 71 0 0 0 1 0 390 483
9 72 0 0 0 1 10 400 616
9 73 0 1 1 1 10 410 583
9 74 0 0 0 1 0 410 750
9 75 0 0 0 1 0 410 600
9 76 0 0 0 1 10 420 700
9 77 0 1 1 1 0 420 600
9 78 0 1 1 1 10 430 533
9 79 0 1 1 1 0 430 683
9 80 0 0 0 1 10 440 616
9 81 0 0 0 1 10 450 2250
9 82 0 0 0 1 0 450 850
9 83 0 0 0 1 0 450 2283
9 84 0 1 1 1 10 460 1416
9 85 0 0 1 0 0 460 516
9 86 0 0 0 1 10 470 1183
9 87 0 0 0 1 10 480 650
9 88 0 1 1 1 10 490 750
9 89 0 0 0 1 10 500 616
9 90 0 1 1 1 0 500 516
9 91 0 0 1 0 0 500 783
9 92 0 0 1 0 0 500 766
9 93 0 1 1 1 10 510 1600
9 94 0 0 0 1 0 510 566
9 95 0 0 0 1 0 510 550
9 96 0 0 1 0 0 510 650
9 97 0 1 1 1 0 510 916
9 98 0 1 1 1 10 520 1666
9 99 0 0 0 1 10 530 500
9 100 0 1 1 1 10 540 650
9 101 1 1 0 0 0 540 1383
9 102 1 0 0 1 0 540 733
9 103 1 1 1 1 10 550 866
9 104 1 1 1 1 10 560 633
9 105 1 0 0 1 10 570 500
9 106 1 0 0 1 10 580 633
9 107 1 0 1 0 0 580 916
9 108 1 0 0 1 0 580 783
9 109 1 1 0 0 10 590 683
9 110 1 1 0 0 0 590 650
9 111 1 1 1 1 0 590 733
9 112 1 1 0 0 0 590 683
9 113 1 1 1 1 0 590 1016
9 114 1 0 1 0 0 590 1050
9 115 1 1 0 0 0 590 583
9 116 1 0 1 0 0 590 916
9 117 1 0 1 0 10 600 1533
9 118 1 1 0 0 0 600 516
9 119 1 0 1 0 0 600 950
9 120 1 1 0 0 0 600 1116
9 121 1 1 1 1 10 610 833
9 122 1 1 1 1 10 620 716
9 123 1 0 0 1 0 620 683
9 124 1 0 1 0 0 620 1050
9 125 1 0 0 1 0 620 666
9 126 1 0 0 1 10 630 716
9 127 1 1 1 1 10 640 616
9 128 1 1 1 1 10 650 733
9 129 1 0 0 1 10 660 566
9 130 1 1 0 0 0 660 2166
9 131 1 1 1 1 10 670 833
9 132 1 1 1 1 10 680 666
9 133 1 0 0 1 0 680 850
9 134 1 1 0 0 10 690 583
9 135 1 0 1 0 0 690 833
9 136 1 0 0 1 10 700 1066
9 137 1 1 0 0 0 700 933
9 138 1 1 1 1 0 700 900
9 139 1 0 1 0 0 700 1483
9 140 1 1 1 1 10 710 783
9 141 1 0 0 1 10 720 717
9 142 1 0 0 1 10 730 533
9 143 1 1 1 1 0 730 583
9 144 1 0 1 0 10 740 1083
9 145 1 1 0 0 0 740 666
9 146 1 0 0 1 10 750 2050
9 147 1 0 0 1 10 760 1683
9 148 1 0 0 1 0 760 583
9 149 1 1 1 1 10 770 533
9 150 1 0 0 1 0 770 883
9 151 1 1 0 0 0 770 2283
9 152 1 0 0 1 10 780 600
9 153 1 1 1 1 10 790 666
9 154 1 0 0 1 0 790 750
9 155 1 1 0 0 0 790 583
9 156 1 0 0 1 10 800 683
9 157 1 1 1 1 10 810 500
9 158 1 0 0 1 10 820 550
9 159 1 1 1 1 0 820 766
9 160 1 1 0 0 10 830 683
9 161 1 0 1 0 0 830 533
9 162 1 1 1 1 10 840 850
9 163 1 1 1 1 10 850 1400
9 164 1 0 0 1 0 850 800
9 165 1 0 1 0 0 850 2050
9 166 1 0 0 1 0 850 566
9 167 1 0 1 0 0 850 850
9 168 1 1 0 0 0 850 1383
9 169 1 1 1 1 0 850 750
9 170 1 0 0 1 0 850 883
9 171 1 1 1 1 10 860 716
9 172 1 1 1 1 10 870 1216
9 173 1 1 1 1 10 880 766
9 174 1 0 0 1 10 890 666
9 175 1 0 0 1 10 900 533
9 176 1 1 0 0 0 900 766
9 177 1 0 0 1 10 910 750
9 178 1 1 1 1 10 920 716
9 179 1 1 1 1 0 920 583
9 180 1 1 0 0 10 930 517
9 181 1 0 1 0 10 940 1050
9 182 1 1 1 1 10 950 1433
9 183 1 0 0 1 10 960 700
9 184 1 1 1 1 10 970 550
9 185 1 0 0 1 10 980 533
9 186 1 0 0 1 10 990 516
9 187 1 1 1 1 10 1000 700
9 188 1 0 0 1 10 1010 433
9 189 1 0 1 0 0 1010 566
9 190 1 0 0 1 10 1020 1316
9 191 1 1 1 1 10 1030 683
9 192 1 1 0 0 0 1030 1566
9 193 1 1 1 1 0 1030 1400
9 194 1 1 0 0 0 1030 583
9 195 1 0 0 1 10 1040 783
9 196 1 0 0 1 10 1050 983
9 197 1 0 0 1 10 1060 883
9 198 1 0 0 1 10 1070 466
9 199 1 0 0 1 10 1080 433
9 200 1 1 1 1 10 1090 600
