SubNo,TrialNo,Mapping,State,Resp,Acc,Reward,Balance,ReactionTime,UncerCond,RewardedOrNot
1,1,1,1,0,0,0,0,1484,SU,0
1,2,1,1,0,0,0,0,2316,SU,0
1,3,1,1,1,1,10,10,1319,SU,1
1,4,1,1,1,1,10,20,1000,SU,1
1,5,1,1,1,1,10,30,714,SU,1
1,6,1,1,1,1,10,40,900,SU,1
1,7,1,1,0,0,0,40,1033,SU,0
1,8,1,0,1,0,0,40,716,SU,0
1,9,1,0,1,0,0,40,967,SU,0
1,10,1,1,1,1,10,50,633,SU,1
1,11,1,0,1,0,0,50,816,SU,0
1,12,1,0,0,1,10,60,1100,SU,1
1,13,1,1,0,0,0,60,800,SU,0
1,14,1,1,1,1,10,70,1166,SU,1
1,15,1,0,1,0,0,70,866,SU,0
1,16,1,1,0,0,0,70,1566,SU,0
1,17,1,0,1,0,0,70,766,SU,0
1,18,1,0,0,1,10,80,1467,SU,1
1,19,1,1,1,1,10,90,2266,SU,1
1,20,1,0,1,0,0,90,750,SU,0
1,21,1,1,0,0,0,90,1200,SU,0
1,22,1,1,1,1,10,100,950,SU,1
1,23,1,1,1,1,10,110,1066,SU,1
1,24,1,0,1,0,0,110,633,SU,0
1,25,1,0,1,0,0,110,750,SU,0
1,26,1,0,1,0,0,110,1850,SU,0
1,27,1,1,0,0,0,110,1000,SU,0
1,28,1,0,1,0,0,110,1150,SU,0
1,29,1,1,0,0,0,110,1466,SU,0
1,30,1,1,1,1,10,120,1083,SU,1
1,31,1,1,0,0,0,120,1900,SU,0
1,32,1,1,0,0,0,120,1783,SU,0
1,33,1,0,0,1,10,130,2300,SU,1
1,34,1,0,0,1,10,140,1366,SU,1
1,35,1,1,0,0,0,140,1916,SU,0
1,36,1,1,1,1,10,150,1383,SU,1
1,37,1,0,1,0,0,150,1683,SU,0
1,38,1,0,1,0,0,150,1750,SU,0
1,39,1,1,1,1,10,160,4533,SU,1
1,40,1,0,0,1,10,170,1316,SU,1
1,41,1,1,1,1,10,180,1350,SU,1
1,42,1,1,0,0,0,180,2116,SU,0
1,43,1,1,0,0,0,180,1450,SU,0
1,44,1,1,1,1,10,190,1300,SU,1
1,45,1,1,1,1,10,200,1233,SU,1
1,46,1,0,1,0,0,200,817,SU,0
1,47,1,1,1,1,10,210,2017,SU,1
1,48,1,1,0,0,0,210,1083,SU,0
1,49,1,0,1,0,0,210,1250,SU,0
1,50,1,0,0,1,10,220,1266,SU,1
1,51,1,0,1,0,0,220,1250,SU,0
1,52,1,0,0,1,10,230,1517,SU,1
1,53,1,0,1,0,0,230,1783,SU,0
1,54,1,1,0,0,0,230,1116,SU,0
1,55,1,0,1,0,0,230,1233,SU,0
1,56,1,1,1,1,10,240,1400,SU,1
1,57,1,0,0,1,10,250,916,SU,1
1,58,1,1,1,1,10,260,1066,SU,1
1,59,1,1,0,0,0,260,1083,SU,0
1,60,1,0,0,1,10,270,783,SU,1
1,61,1,1,1,1,10,280,1183,SU,1
1,62,1,1,1,1,10,290,1000,SU,1
1,63,1,0,1,0,0,290,966,SU,0
1,64,1,0,0,1,10,300,1966,SU,1
1,65,1,0,0,1,10,310,1050,SU,1
1,66,1,1,1,1,10,320,983,SU,1
1,67,1,0,0,1,10,330,1966,SU,1
1,68,1,0,1,0,0,330,1500,SU,0
1,69,1,0,0,1,10,340,1200,SU,1
1,70,1,0,0,1,10,350,2050,SU,1
1,71,1,1,0,0,0,350,3066,SU,0
1,72,1,1,0,0,0,350,1583,SU,0
1,73,1,0,0,1,10,360,850,SU,1
1,74,1,0,0,1,10,370,1466,SU,1
1,75,1,1,1,1,10,380,1433,SU,1
1,76,1,0,0,1,10,390,2366,SU,1
1,77,1,1,0,0,0,390,1716,SU,0
1,78,1,0,0,1,10,400,1216,SU,1
1,79,1,1,1,1,10,410,3066,SU,1
1,80,1,1,1,1,10,420,1133,SU,1
1,81,1,0,0,1,10,430,1100,SU,1
1,82,1,0,0,1,10,440,1783,SU,1
1,83,1,0,0,1,10,450,1500,SU,1
1,84,1,0,0,1,10,460,900,SU,1
1,85,1,0,0,1,10,470,1033,SU,1
1,86,1,0,1,0,0,470,1016,SU,0
1,87,1,1,1,1,10,480,1350,SU,1
1,88,1,1,1,1,10,490,900,SU,1
1,89,1,0,1,0,0,490,916,SU,0
1,90,1,1,1,1,10,500,1300,SU,1
1,91,1,0,0,1,10,510,1800,SU,1
1,92,1,0,0,1,10,520,1216,SU,1
1,93,1,0,0,1,10,530,1700,SU,1
1,94,1,0,1,0,0,530,1300,SU,0
1,95,1,0,0,1,10,540,1616,SU,1
1,96,1,1,1,1,10,550,999,SU,1
1,97,1,1,0,0,0,550,1250,SU,0
1,98,1,0,0,1,10,560,1600,SU,1
1,99,1,1,1,1,10,570,1366,SU,1
1,100,1,1,1,1,10,580,1650,SU,1
1,101,0,0,1,0,0,580,1933,SU,0
1,102,0,1,0,0,0,580,1816,SU,0
1,103,0,1,1,1,10,590,1233,SU,1
1,104,0,0,1,0,0,590,1083,SU,0
1,105,0,0,1,0,0,590,1366,SU,0
1,106,0,0,0,1,10,600,1499,SU,1
1,107,0,1,1,1,10,610,2283,SU,1
1,108,0,0,1,0,0,610,1250,SU,0
1,109,0,1,1,1,10,620,1733,SU,1
1,110,0,0,1,0,0,620,1666,SU,0
1,111,0,1,0,0,0,620,1350,SU,0
1,112,0,1,1,1,10,630,1050,SU,1
1,113,0,0,0,1,10,640,1200,SU,1
1,114,0,0,1,0,0,640,983,SU,0
1,115,0,1,0,0,0,640,1200,SU,0
1,116,0,1,0,0,0,640,1633,SU,0
1,117,0,1,0,0,0,640,1250,SU,0
1,118,0,0,1,0,0,640,983,SU,0
1,119,0,0,1,0,0,640,2150,SU,0
1,120,0,0,1,0,0,640,1816,SU,0
1,121,0,0,0,1,10,650,1266,SU,1
1,122,0,1,1,1,10,660,1383,SU,1
1,123,0,1,0,0,0,660,1116,SU,0
1,124,0,1,1,1,10,670,1183,SU,1
1,125,0,1,0,0,0,670,1216,SU,0
1,126,0,0,1,0,0,670,1150,SU,0
1,127,0,1,0,0,0,670,883,SU,0
1,128,0,0,0,1,10,680,2116,SU,1
1,129,0,0,1,0,0,680,1317,SU,0
1,130,0,1,1,1,10,690,916,SU,1
1,131,0,1,1,1,10,700,916,SU,1
1,132,0,1,0,0,0,700,1116,SU,0
1,133,0,0,1,0,0,700,783,SU,0
1,134,0,1,0,0,0,700,1133,SU,0
1,135,0,0,1,0,0,700,2350,SU,0
1,136,0,1,0,0,0,700,950,SU,0
1,137,0,0,1,0,0,700,1117,SU,0
1,138,0,0,0,1,10,710,866,SU,1
1,139,0,1,1,1,10,720,1083,SU,1
1,140,0,1,0,0,0,720,1083,SU,0
1,141,0,0,0,1,10,730,1650,SU,1
1,142,0,1,0,0,0,730,1533,SU,0
1,143,0,1,1,1,10,740,733,SU,1
1,144,0,0,1,0,0,740,983,SU,0
1,145,0,0,1,0,0,740,850,SU,0
1,146,0,0,0,1,10,750,933,SU,1
1,147,0,0,0,1,10,760,716,SU,1
1,148,0,1,0,0,0,760,700,SU,0
1,149,0,1,1,1,10,770,850,SU,1
1,150,0,1,0,0,0,770,1383,SU,0
1,151,0,1,1,1,10,780,1650,SU,1
1,152,0,0,1,0,0,780,1783,SU,0
1,153,0,1,0,0,0,780,1416,SU,0
1,154,0,1,1,1,10,790,1367,SU,1
1,155,0,1,1,1,10,800,1000,SU,1
1,156,0,1,1,1,10,810,966,SU,1
1,157,0,1,1,1,10,820,1833,SU,1
1,158,0,1,0,0,0,820,1233,SU,0
1,159,0,0,1,0,0,820,1083,SU,0
1,160,0,0,1,0,0,820,1066,SU,0
1,161,0,1,0,0,0,820,900,SU,0
1,162,0,0,1,0,0,820,966,SU,0
1,163,0,1,1,1,10,830,1716,SU,1
1,164,0,1,0,0,0,830,966,SU,0
1,165,0,1,1,1,10,840,1283,SU,1
1,166,0,1,0,0,0,840,1533,SU,0
1,167,0,0,0,1,10,850,883,SU,1
1,168,0,0,1,0,0,850,1583,SU,0
1,169,0,0,0,1,10,860,1300,SU,1
1,170,0,0,1,0,0,860,817,SU,0
1,171,0,0,1,0,0,860,700,SU,0
1,172,0,1,0,0,0,860,1000,SU,0
1,173,0,0,0,1,10,870,1133,SU,1
1,174,0,1,0,0,0,870,1916,SU,0
1,175,0,0,1,0,0,870,1916,SU,0
1,176,0,1,0,0,0,870,1616,SU,0
1,177,0,0,1,0,0,870,1783,SU,0
1,178,0,0,1,0,0,870,1333,SU,0
1,179,0,0,1,0,0,870,1550,SU,0
1,180,0,0,0,1,10,880,1633,SU,1
1,181,0,0,1,0,0,880,2316,SU,0
1,182,0,0,0,1,10,890,1633,SU,1
1,183,0,1,0,0,0,890,1200,SU,0
1,184,0,1,0,0,0,890,1300,SU,0
1,185,0,0,0,1,10,900,1533,SU,1
1,186,0,0,0,1,10,910,2216,SU,1
1,187,0,0,1,0,0,910,1516,SU,0
1,188,0,0,1,0,0,910,850,SU,0
1,189,0,0,0,1,10,920,1133,SU,1
1,190,0,0,1,0,0,920,1066,SU,0
1,191,0,0,0,1,10,930,683,SU,1
1,192,0,0,1,0,0,930,1366,SU,0
1,193,0,1,0,0,0,930,1200,SU,0
1,194,0,1,1,1,10,940,750,SU,1
1,195,0,1,0,0,0,940,883,SU,0
1,196,0,1,1,1,10,950,650,SU,1
1,197,0,1,1,1,10,960,866,SU,1
1,198,0,0,1,0,0,960,800,SU,0
1,199,0,1,0,0,0,960,716,SU,0
1,200,0,1,0,0,0,960,1433,SU,0
2,1,1,1,0,0,0,0,2450,SU,0
2,2,1,0,0,1,10,10,1116,SU,1
2,3,1,0,0,1,10,20,1016,SU,1
2,4,1,0,0,1,10,30,833,SU,1
2,5,1,0,0,1,10,40,700,SU,1
2,6,1,1,0,0,0,40,766,SU,0
2,7,1,1,1,1,10,50,1116,SU,1
2,8,1,1,0,0,0,50,1116,SU,0
2,9,1,0,1,0,0,50,1100,SU,0
2,10,1,1,0,0,0,50,1016,SU,0
2,11,1,0,0,1,10,60,1300,SU,1
2,12,1,0,0,1,10,70,1016,SU,1
2,13,1,1,0,0,0,70,900,SU,0
2,14,1,0,0,1,10,80,633,SU,1
2,15,1,1,1,1,10,90,1100,SU,1
2,16,1,1,0,0,0,90,933,SU,0
2,17,1,1,1,1,10,100,950,SU,1
2,18,1,1,0,0,0,100,750,SU,0
2,19,1,0,0,1,10,110,916,SU,1
2,20,1,0,0,1,10,120,1383,SU,1
2,21,1,0,1,0,0,120,1650,SU,0
2,22,1,0,0,1,10,130,966,SU,1
2,23,1,1,1,1,10,140,1100,SU,1
2,24,1,1,0,0,0,140,916,SU,0
2,25,1,1,1,1,10,150,1100,SU,1
2,26,1,0,0,1,10,160,866,SU,1
2,27,1,0,0,1,10,170,950,SU,1
2,28,1,1,1,1,10,180,983,SU,1
2,29,1,1,1,1,10,190,1366,SU,1
2,30,1,1,1,1,10,200,766,SU,1
2,31,1,1,0,0,0,200,1000,SU,0
2,32,1,0,0,1,10,210,800,SU,1
2,33,1,1,1,1,10,220,1083,SU,1
2,34,1,0,0,1,10,230,1150,SU,1
2,35,1,1,1,1,10,240,700,SU,1
2,36,1,0,1,0,0,240,2916,SU,0
2,37,1,0,0,1,10,250,1716,SU,1
2,38,1,1,1,1,10,260,900,SU,1
2,39,1,0,1,0,0,260,3650,SU,0
2,40,1,1,0,0,0,260,900,SU,0
2,41,1,1,0,0,0,260,1016,SU,0
2,42,1,0,1,0,0,260,700,SU,0
2,43,1,1,0,0,0,260,1033,SU,0
2,44,1,1,1,1,10,270,1200,SU,1
2,45,1,0,1,0,0,270,1233,SU,0
2,46,1,1,0,0,0,270,1016,SU,0
2,47,1,0,1,0,0,270,900,SU,0
2,48,1,1,1,1,10,280,1450,SU,1
2,49,1,0,0,1,10,290,666,SU,1
2,50,1,1,1,1,10,300,1033,SU,1
2,51,1,0,0,1,10,310,1183,SU,1
2,52,1,0,1,0,0,310,933,SU,0
2,53,1,0,1,0,0,310,1300,SU,0
2,54,1,1,1,1,10,320,2166,SU,1
2,55,1,0,1,0,0,320,766,SU,0
2,56,1,0,0,1,10,330,1016,SU,1
2,57,1,1,1,1,10,340,733,SU,1
2,58,1,0,1,0,0,340,1616,SU,0
2,59,1,0,0,1,10,350,633,SU,1
2,60,1,0,1,0,0,350,1983,SU,0
2,61,1,0,0,1,10,360,1000,SU,1
2,62,1,0,1,0,0,360,950,SU,0
2,63,1,0,0,1,10,370,1216,SU,1
2,64,1,0,0,1,10,380,700,SU,1
2,65,1,0,0,1,10,390,766,SU,1
2,66,1,1,1,1,10,400,1033,SU,1
2,67,1,0,0,1,10,410,1183,SU,1
2,68,1,1,0,0,0,410,1083,SU,0
2,69,1,1,1,1,10,420,1266,SU,1
2,70,1,1,0,0,0,420,1300,SU,0
2,71,1,0,0,1,10,430,1783,SU,1
2,72,1,1,1,1,10,440,933,SU,1
2,73,1,1,1,1,10,450,916,SU,1
2,74,1,1,1,1,10,460,866,SU,1
2,75,1,0,1,0,0,460,1216,SU,0
2,76,1,1,0,0,0,460,683,SU,0
2,77,1,1,1,1,10,470,916,SU,1
2,78,1,0,1,0,0,470,900,SU,0
2,79,1,0,1,0,0,470,1683,SU,0
2,80,1,1,0,0,0,470,916,SU,0
2,81,1,1,1,1,10,480,1166,SU,1
2,82,1,0,0,1,10,490,1316,SU,1
2,83,1,0,0,1,10,500,1550,SU,1
2,84,1,0,0,1,10,510,1616,SU,1
2,85,1,1,0,0,0,510,1150,SU,0
2,86,1,0,1,0,0,510,900,SU,0
2,87,1,1,0,0,0,510,883,SU,0
2,88,1,1,0,0,0,510,1033,SU,0
2,89,1,1,1,1,10,520,800,SU,1
2,90,1,1,0,0,0,520,966,SU,0
2,91,1,1,0,0,0,520,1133,SU,0
2,92,1,1,1,1,10,530,1716,SU,1
2,93,1,1,0,0,0,530,1833,SU,0
2,94,1,0,1,0,0,530,1216,SU,0
2,95,1,0,1,0,0,530,2100,SU,0
2,96,1,1,0,0,0,530,816,SU,0
2,97,1,1,0,0,0,530,866,SU,0
2,98,1,0,0,1,10,540,1750,SU,1
2,99,1,0,0,1,10,550,700,SU,1
2,100,1,0,0,1,10,560,1150,SU,1
2,101,0,1,0,0,0,560,950,SU,0
2,102,0,1,0,0,0,560,1233,SU,0
2,103,0,1,1,1,10,570,683,SU,1
2,104,0,1,1,1,10,580,783,SU,1
2,105,0,0,1,0,0,580,833,SU,0
2,106,0,0,0,1,10,590,1083,SU,1
2,107,0,0,0,1,10,600,933,SU,1
2,108,0,1,1,1,10,610,1033,SU,1
2,109,0,0,0,1,10,620,900,SU,1
2,110,0,0,0,1,10,630,1066,SU,1
2,111,0,0,0,1,10,640,816,SU,1
2,112,0,1,0,0,0,640,1883,SU,0
2,113,0,0,1,0,0,640,1716,SU,0
2,114,0,1,0,0,0,640,1233,SU,0
2,115,0,0,1,0,0,640,2750,SU,0
2,116,0,1,1,1,10,650,1300,SU,1
2,117,0,1,1,1,10,660,1033,SU,1
2,118,0,1,0,0,0,660,1050,SU,0
2,119,0,0,1,0,0,660,1066,SU,0
2,120,0,1,1,1,10,670,950,SU,1
2,121,0,1,0,0,0,670,950,SU,0
2,122,0,1,0,0,0,670,1050,SU,0
2,123,0,0,0,1,10,680,700,SU,1
2,124,0,0,0,1,10,690,700,SU,1
2,125,0,1,1,1,10,700,1066,SU,1
2,126,0,0,1,0,0,700,1016,SU,0
2,127,0,0,0,1,10,710,1183,SU,1
2,128,0,0,0,1,10,720,716,SU,1
2,129,0,0,0,1,10,730,1133,SU,1
2,130,0,0,1,0,0,730,1500,SU,0
2,131,0,0,0,1,10,740,616,SU,1
2,132,0,1,1,1,10,750,1300,SU,1
2,133,0,1,1,1,10,760,916,SU,1
2,134,0,0,1,0,0,760,1966,SU,0
2,135,0,1,0,0,0,760,700,SU,0
2,136,0,0,0,1,10,770,1000,SU,1
2,137,0,1,1,1,10,780,1266,SU,1
2,138,0,1,1,1,10,790,1083,SU,1
2,139,0,1,1,1,10,800,1350,SU,1
2,140,0,1,1,1,10,810,1016,SU,1
2,141,0,0,0,1,10,820,1333,SU,1
2,142,0,1,0,0,0,820,1333,SU,0
2,143,0,0,0,1,10,830,700,SU,1
2,144,0,1,1,1,10,840,1166,SU,1
2,145,0,0,0,1,10,850,933,SU,1
2,146,0,1,0,0,0,850,1450,SU,0
2,147,0,1,0,0,0,850,766,SU,0
2,148,0,1,1,1,10,860,1083,SU,1
2,149,0,1,1,1,10,870,866,SU,1
2,150,0,1,0,0,0,870,850,SU,0
2,151,0,0,1,0,0,870,1250,SU,0
2,152,0,1,0,0,0,870,800,SU,0
2,153,0,0,1,0,0,870,1050,SU,0
2,154,0,0,0,1,10,880,683,SU,1
2,155,0,0,1,0,0,880,866,SU,0
2,156,0,0,0,1,10,890,616,SU,1
2,157,0,1,1,1,10,900,1283,SU,1
2,158,0,1,1,1,10,910,1100,SU,1
2,159,0,1,1,1,10,920,1183,SU,1
2,160,0,0,1,0,0,920,1466,SU,0
2,161,0,0,1,0,0,920,983,SU,0
2,162,0,1,1,1,10,930,983,SU,1
2,163,0,0,1,0,0,930,1783,SU,0
2,164,0,1,0,0,0,930,966,SU,0
2,165,0,0,0,1,10,940,816,SU,1
2,166,0,0,1,0,0,940,883,SU,0
2,167,0,0,0,1,10,950,766,SU,1
2,168,0,0,0,1,10,960,1583,SU,1
2,169,0,1,1,1,10,970,1383,SU,1
2,170,0,0,1,0,0,970,1500,SU,0
2,171,0,1,0,0,0,970,700,SU,0
2,172,0,1,1,1,10,980,1233,SU,1
2,173,0,0,1,0,0,980,1950,SU,0
2,174,0,1,1,1,10,990,950,SU,1
2,175,0,0,0,1,10,1000,1733,SU,1
2,176,0,1,1,1,10,1010,833,SU,1
2,177,0,1,1,1,10,1020,1150,SU,1
2,178,0,0,0,1,10,1030,733,SU,1
2,179,0,0,0,1,10,1040,1183,SU,1
2,180,0,1,1,1,10,1050,1066,SU,1
2,181,0,0,0,1,10,1060,933,SU,1
2,182,0,1,1,1,10,1070,983,SU,1
2,183,0,1,1,1,10,1080,1050,SU,1
2,184,0,1,1,1,10,1090,716,SU,1
2,185,0,0,1,0,0,1090,1066,SU,0
2,186,0,0,0,1,10,1100,616,SU,1
2,187,0,1,0,0,0,1100,1000,SU,0
2,188,0,0,0,1,10,1110,833,SU,1
2,189,0,1,0,0,0,1110,783,SU,0
2,190,0,0,0,1,10,1120,650,SU,1
2,191,0,1,1,1,10,1130,1183,SU,1
2,192,0,0,1,0,0,1130,866,SU,0
2,193,0,0,1,0,0,1130,900,SU,0
2,194,0,0,0,1,10,1140,816,SU,1
2,195,0,1,1,1,10,1150,1400,SU,1
2,196,0,0,1,0,0,1150,1916,SU,0
2,197,0,1,1,1,10,1160,766,SU,1
2,198,0,0,0,1,10,1170,950,SU,1
2,199,0,0,0,1,10,1180,1850,SU,1
2,200,0,1,0,0,0,1180,1100,SU,0
3,1,0,0,1,0,0,0,4568,SU,0
3,2,0,1,1,1,10,10,1349,SU,1
3,3,0,0,1,0,0,10,816,SU,0
3,4,0,0,0,1,10,20,2768,SU,1
3,5,0,1,1,1,10,30,2381,SU,1
3,6,0,0,0,1,10,40,1633,SU,1
3,7,0,0,0,1,10,50,1266,SU,1
3,8,0,0,0,1,10,60,883,SU,1
3,9,0,0,0,1,10,70,500,SU,1
3,10,0,0,0,1,10,80,516,SU,1
3,11,0,0,0,1,10,90,550,SU,1
3,12,0,0,0,1,10,100,633,SU,1
3,13,0,1,1,1,10,110,966,SU,1
3,14,0,0,0,1,10,120,450,SU,1
3,15,0,1,1,1,10,130,816,SU,1
3,16,0,1,1,1,10,140,783,SU,1
3,17,0,1,1,1,10,150,750,SU,1
3,18,0,0,0,1,10,160,650,SU,1
3,19,0,1,1,1,10,170,583,SU,1
3,20,0,0,1,0,0,170,2650,SU,0
3,21,0,1,1,1,10,180,733,SU,1
3,22,0,1,1,1,10,190,716,SU,1
3,23,0,1,1,1,10,200,600,SU,1
3,24,0,0,0,1,10,210,733,SU,1
3,25,0,1,1,1,10,220,1116,SU,1
3,26,0,0,1,0,0,220,1567,SU,0
3,27,0,1,1,1,10,230,750,SU,1
3,28,0,1,1,1,10,240,700,SU,1
3,29,0,0,0,1,10,250,566,SU,1
3,30,0,0,0,1,10,260,516,SU,1
3,31,0,1,1,1,10,270,783,SU,1
3,32,0,1,1,1,10,280,433,SU,1
3,33,0,1,1,1,10,290,566,SU,1
3,34,0,0,0,1,10,300,700,SU,1
3,35,0,0,0,1,10,310,500,SU,1
3,36,0,1,1,1,10,320,666,SU,1
3,37,0,0,0,1,10,330,1016,SU,1
3,38,0,1,1,1,10,340,466,SU,1
3,39,0,1,1,1,10,350,616,SU,1
3,40,0,0,0,1,10,360,500,SU,1
3,41,0,1,1,1,10,370,616,SU,1
3,42,0,1,1,1,10,380,550,SU,1
3,43,0,1,1,1,10,390,533,SU,1
3,44,0,0,0,1,10,400,650,SU,1
3,45,0,1,1,1,10,410,800,SU,1
3,46,0,1,1,1,10,420,516,SU,1
3,47,0,0,0,1,10,430,600,SU,1
3,48,0,1,0,0,0,430,616,SU,0
3,49,0,1,1,1,10,440,750,SU,1
3,50,0,0,0,1,10,450,566,SU,1
3,51,0,1,1,1,10,460,800,SU,1
3,52,0,1,1,1,10,470,783,SU,1
3,53,0,0,0,1,10,480,633,SU,1
3,54,0,0,0,1,10,490,466,SU,1
3,55,0,1,1,1,10,500,483,SU,1
3,56,0,0,0,1,10,510,950,SU,1
3,57,0,0,0,1,10,520,533,SU,1
3,58,0,1,1,1,10,530,666,SU,1
3,59,0,0,1,0,0,530,566,SU,0
3,60,0,1,1,1,10,540,850,SU,1
3,61,0,0,0,1,10,550,516,SU,1
3,62,0,0,0,1,10,560,500,SU,1
3,63,0,1,0,0,0,560,7016,SU,0
3,64,0,1,1,1,10,570,2933,SU,1
3,65,0,0,0,1,10,580,1516,SU,1
3,66,0,0,1,0,0,580,800,SU,0
3,67,0,1,1,1,10,590,533,SU,1
3,68,0,1,1,1,10,600,666,SU,1
3,69,0,0,0,1,10,610,1000,SU,1
3,70,0,1,1,1,10,620,700,SU,1
3,71,0,0,1,0,0,620,1033,SU,0
3,72,0,0,0,1,10,630,650,SU,1
3,73,0,0,0,1,10,640,433,SU,1
3,74,0,0,0,1,10,650,516,SU,1
3,75,0,0,0,1,10,660,550,SU,1
3,76,0,1,0,0,0,660,1166,SU,0
3,77,0,0,1,0,0,660,866,SU,0
3,78,0,1,0,0,0,660,850,SU,0
3,79,0,1,1,1,10,670,1033,SU,1
3,80,0,0,1,0,0,670,1050,SU,0
3,81,0,1,0,0,0,670,1683,SU,0
3,82,0,1,1,1,10,680,733,SU,1
3,83,0,0,1,0,0,680,666,SU,0
3,84,0,1,1,1,10,690,783,SU,1
3,85,0,1,0,0,0,690,1133,SU,0
3,86,0,1,1,1,10,700,900,SU,1
3,87,0,0,0,1,10,710,983,SU,1
3,88,0,1,1,1,10,720,583,SU,1
3,89,0,0,0,1,10,730,616,SU,1
3,90,0,0,0,1,10,740,666,SU,1
3,91,0,0,0,1,10,750,550,SU,1
3,92,0,0,0,1,10,760,750,SU,1
3,93,0,1,0,0,0,760,600,SU,0
3,94,0,0,0,1,10,770,1050,SU,1
3,95,0,1,1,1,10,780,816,SU,1
3,96,0,1,0,0,0,780,1166,SU,0
3,97,0,1,1,1,10,790,766,SU,1
3,98,0,1,1,1,10,800,683,SU,1
3,99,0,0,1,0,0,800,8650,SU,0
3,100,0,0,1,0,0,800,716,SU,0
3,101,1,1,0,0,0,800,583,SU,0
3,102,1,1,1,1,10,810,600,SU,1
3,103,1,1,0,0,0,810,1250,SU,0
3,104,1,1,1,1,10,820,1583,SU,1
3,105,1,1,0,0,0,820,600,SU,0
3,106,1,0,1,0,0,820,1400,SU,0
3,107,1,1,0,0,0,820,3983,SU,0
3,108,1,0,0,1,10,830,2150,SU,1
3,109,1,1,1,1,10,840,566,SU,1
3,110,1,1,1,1,10,850,866,SU,1
3,111,1,0,1,0,0,850,916,SU,0
3,112,1,1,1,1,10,860,883,SU,1
3,113,1,0,1,0,0,860,1583,SU,0
3,114,1,1,1,1,10,870,1866,SU,1
3,115,1,1,1,1,10,880,816,SU,1
3,116,1,0,0,1,10,890,1233,SU,1
3,117,1,1,1,1,10,900,933,SU,1
3,118,1,0,0,1,10,910,683,SU,1
3,119,1,1,1,1,10,920,1233,SU,1
3,120,1,0,0,1,10,930,1533,SU,1
3,121,1,0,0,1,10,940,1700,SU,1
3,122,1,1,1,1,10,950,950,SU,1
3,123,1,1,1,1,10,960,916,SU,1
3,124,1,1,1,1,10,970,1166,SU,1
3,125,1,1,1,1,10,980,650,SU,1
3,126,1,1,1,1,10,990,1066,SU,1
3,127,1,1,1,1,10,1000,550,SU,1
3,128,1,0,0,1,10,1010,633,SU,1
3,129,1,0,0,1,10,1020,716,SU,1
3,130,1,1,1,1,10,1030,633,SU,1
3,131,1,1,1,1,10,1040,750,SU,1
3,132,1,0,0,1,10,1050,916,SU,1
3,133,1,1,1,1,10,1060,800,SU,1
3,134,1,1,1,1,10,1070,1316,SU,1
3,135,1,1,1,1,10,1080,4216,SU,1
3,136,1,0,0,1,10,1090,900,SU,1
3,137,1,0,1,0,0,1090,1750,SU,0
3,138,1,0,0,1,10,1100,1550,SU,1
3,139,1,0,1,0,0,1100,2416,SU,0
3,140,1,0,1,0,0,1100,1150,SU,0
3,141,1,1,0,0,0,1100,733,SU,0
3,142,1,1,1,1,10,1110,766,SU,1
3,143,1,0,1,0,0,1110,533,SU,0
3,144,1,0,0,1,10,1120,766,SU,1
3,145,1,1,1,1,10,1130,783,SU,1
3,146,1,0,0,1,10,1140,483,SU,1
3,147,1,0,0,1,10,1150,866,SU,1
3,148,1,0,0,1,10,1160,933,SU,1
3,149,1,0,0,1,10,1170,1466,SU,1
3,150,1,0,0,1,10,1180,583,SU,1
3,151,1,0,0,1,10,1190,516,SU,1
3,152,1,1,1,1,10,1200,1150,SU,1
3,153,1,1,1,1,10,1210,1033,SU,1
3,154,1,0,1,0,0,1210,1000,SU,0
3,155,1,0,1,0,0,1210,983,SU,0
3,156,1,0,1,0,0,1210,883,SU,0
3,157,1,0,1,0,0,1210,1333,SU,0
3,158,1,0,1,0,0,1210,1616,SU,0
3,159,1,0,1,0,0,1210,516,SU,0
3,160,1,1,1,1,10,1220,1450,SU,1
3,161,1,0,1,0,0,1220,2800,SU,0
3,162,1,1,1,1,10,1230,716,SU,1
3,163,1,0,0,1,10,1240,1300,SU,1
3,164,1,1,1,1,10,1250,850,SU,1
3,165,1,1,0,0,0,1250,1466,SU,0
3,166,1,1,1,1,10,1260,1300,SU,1
3,167,1,1,1,1,10,1270,550,SU,1
3,168,1,0,0,1,10,1280,750,SU,1
3,169,1,0,0,1,10,1290,933,SU,1
3,170,1,1,1,1,10,1300,3683,SU,1
3,171,1,1,0,0,0,1300,1450,SU,0
3,172,1,1,1,1,10,1310,650,SU,1
3,173,1,0,0,1,10,1320,650,SU,1
3,174,1,1,0,0,0,1320,3133,SU,0
3,175,1,0,1,0,0,1320,1666,SU,0
3,176,1,1,0,0,0,1320,783,SU,0
3,177,1,0,1,0,0,1320,616,SU,0
3,178,1,1,1,1,10,1330,983,SU,1
3,179,1,1,1,1,10,1340,1166,SU,1
3,180,1,1,1,1,10,1350,633,SU,1
3,181,1,0,1,0,0,1350,533,SU,0
3,182,1,0,0,1,10,1360,700,SU,1
3,183,1,0,0,1,10,1370,766,SU,1
3,184,1,1,1,1,10,1380,866,SU,1
3,185,1,1,1,1,10,1390,1366,SU,1
3,186,1,0,0,1,10,1400,1716,SU,1
3,187,1,0,0,1,10,1410,816,SU,1
3,188,1,0,0,1,10,1420,850,SU,1
3,189,1,1,1,1,10,1430,783,SU,1
3,190,1,0,0,1,10,1440,683,SU,1
3,191,1,0,1,0,0,1440,1250,SU,0
3,192,1,1,1,1,10,1450,1083,SU,1
3,193,1,0,0,1,10,1460,633,SU,1
3,194,1,1,1,1,10,1470,1666,SU,1
3,195,1,1,1,1,10,1480,1916,SU,1
3,196,1,1,1,1,10,1490,1216,SU,1
3,197,1,0,0,1,10,1500,850,SU,1
3,198,1,0,0,1,10,1510,666,SU,1
3,199,1,0,1,0,0,1510,983,SU,0
3,200,1,0,1,0,0,1510,1116,SU,0
4,1,0,0,0,1,10,10,3602,SU,1
4,2,0,0,0,1,10,20,1449,SU,1
4,3,0,1,1,1,10,30,1867,SU,1
4,4,0,0,1,0,0,30,2399,SU,0
4,5,0,0,1,0,0,30,4181,SU,0
4,6,0,1,0,0,0,30,2466,SU,0
4,7,0,0,1,0,0,30,5200,SU,0
4,8,0,1,0,0,0,30,1400,SU,0
4,9,0,1,0,0,0,30,4800,SU,0
4,10,0,1,1,1,10,40,4700,SU,1
4,11,0,0,1,0,0,40,1716,SU,0
4,12,0,1,0,0,0,40,833,SU,0
4,13,0,1,0,0,0,40,3750,SU,0
4,14,0,0,1,0,0,40,2983,SU,0
4,15,0,0,0,1,10,50,733,SU,1
4,16,0,0,0,1,10,60,800,SU,1
4,17,0,1,0,0,0,60,816,SU,0
4,18,0,0,1,0,0,60,1116,SU,0
4,19,0,1,0,0,0,60,933,SU,0
4,20,0,0,1,0,0,60,1950,SU,0
4,21,0,0,0,1,10,70,1783,SU,1
4,22,0,0,0,1,10,80,716,SU,1
4,23,0,0,0,1,10,90,1100,SU,1
4,24,0,1,0,0,0,90,966,SU,0
4,25,0,0,1,0,0,90,1400,SU,0
4,26,0,0,0,1,10,100,5633,SU,1
4,27,0,1,0,0,0,100,2300,SU,0
4,28,0,1,1,1,10,110,1866,SU,1
4,29,0,1,1,1,10,120,683,SU,1
4,30,0,0,1,0,0,120,600,SU,0
4,31,0,0,0,1,10,130,1450,SU,1
4,32,0,0,0,1,10,140,900,SU,1
4,33,0,1,1,1,10,150,2616,SU,1
4,34,0,0,0,1,10,160,2150,SU,1
4,35,0,1,1,1,10,170,4416,SU,1
4,36,0,0,0,1,10,180,1250,SU,1
4,37,0,1,1,1,10,190,1100,SU,1
4,38,0,1,1,1,10,200,1400,SU,1
4,39,0,0,1,0,0,200,1333,SU,0
4,40,0,1,1,1,10,210,1083,SU,1
4,41,0,0,0,1,10,220,2666,SU,1
4,42,0,1,1,1,10,230,2250,SU,1
4,43,0,1,0,0,0,230,3850,SU,0
4,44,0,0,1,0,0,230,1016,SU,0
4,45,0,0,0,1,10,240,1383,SU,1
4,46,0,0,1,0,0,240,1233,SU,0
4,47,0,1,1,1,10,250,4633,SU,1
4,48,0,1,0,0,0,250,2016,SU,0
4,49,0,1,0,0,0,250,3300,SU,0
4,50,0,0,0,1,10,260,866,SU,1
4,51,0,1,0,0,0,260,750,SU,0
4,52,0,1,1,1,10,270,5633,SU,1
4,53,0,0,1,0,0,270,1350,SU,0
4,54,0,1,1,1,10,280,1433,SU,1
4,55,0,1,0,0,0,280,966,SU,0
4,56,0,0,1,0,0,280,1366,SU,0
4,57,0,1,0,0,0,280,1516,SU,0
4,58,0,1,1,1,10,290,2983,SU,1
4,59,0,1,1,1,10,300,2000,SU,1
4,60,0,0,0,1,10,310,2000,SU,1
4,61,0,1,1,1,10,320,1700,SU,1
4,62,0,0,1,0,0,320,6250,SU,0
4,63,0,1,1,1,10,330,1750,SU,1
4,64,0,0,0,1,10,340,5066,SU,1
4,65,0,0,0,1,10,350,1500,SU,1
4,66,0,1,0,0,0,350,2166,SU,0
4,67,0,0,0,1,10,360,1266,SU,1
4,68,0,1,1,1,10,370,2700,SU,1
4,69,0,1,1,1,10,380,833,SU,1
4,70,0,0,0,1,10,390,983,SU,1
4,71,0,1,1,1,10,400,1400,SU,1
4,72,0,1,1,1,10,410,2066,SU,1
4,73,0,1,0,0,0,410,783,SU,0
4,74,0,1,1,1,10,420,2433,SU,1
4,75,0,1,0,0,0,420,866,SU,0
4,76,0,0,1,0,0,420,683,SU,0
4,77,0,0,0,1,10,430,900,SU,1
4,78,0,0,0,1,10,440,1900,SU,1
4,79,0,1,0,0,0,440,5033,SU,0
4,80,0,1,0,0,0,440,1583,SU,0
4,81,0,1,1,1,10,450,616,SU,1
4,82,0,0,1,0,0,450,666,SU,0
4,83,0,0,1,0,0,450,916,SU,0
4,84,0,0,0,1,10,460,966,SU,1
4,85,0,1,1,1,10,470,1366,SU,1
4,86,0,0,0,1,10,480,783,SU,1
4,87,0,0,1,0,0,480,2016,SU,0
4,88,0,0,1,0,0,480,583,SU,0
4,89,0,1,0,0,0,480,2516,SU,0
4,90,0,1,1,1,10,490,3216,SU,1
4,91,0,0,0,1,10,500,1116,SU,1
4,92,0,1,1,1,10,510,2283,SU,1
4,93,0,0,0,1,10,520,3183,SU,1
4,94,0,0,0,1,10,530,3783,SU,1
4,95,0,0,0,1,10,540,2700,SU,1
4,96,0,1,1,1,10,550,1483,SU,1
4,97,0,1,0,0,0,550,1733,SU,0
4,98,0,0,0,1,10,560,1283,SU,1
4,99,0,1,1,1,10,570,1433,SU,1
4,100,0,0,0,1,10,580,2050,SU,1
4,101,1,0,0,1,10,590,2500,SU,1
4,102,1,1,0,0,0,590,1667,SU,0
4,103,1,1,0,0,0,590,3733,SU,0
4,104,1,1,1,1,10,600,1733,SU,1
4,105,1,0,1,0,0,600,3183,SU,0
4,106,1,1,1,1,10,610,2666,SU,1
4,107,1,1,0,0,0,610,1483,SU,0
4,108,1,0,1,0,0,610,1033,SU,0
4,109,1,0,0,1,10,620,900,SU,1
4,110,1,1,1,1,10,630,2000,SU,1
4,111,1,0,0,1,10,640,1400,SU,1
4,112,1,1,1,1,10,650,3883,SU,1
4,113,1,1,1,1,10,660,1383,SU,1
4,114,1,0,0,1,10,670,916,SU,1
4,115,1,0,0,1,10,680,2150,SU,1
4,116,1,0,0,1,10,690,833,SU,1
4,117,1,0,0,1,10,700,766,SU,1
4,118,1,1,1,1,10,710,883,SU,1
4,119,1,1,1,1,10,720,1633,SU,1
4,120,1,1,1,1,10,730,1616,SU,1
4,121,1,1,1,1,10,740,1916,SU,1
4,122,1,1,0,0,0,740,833,SU,0
4,123,1,1,0,0,0,740,733,SU,0
4,124,1,1,0,0,0,740,2016,SU,0
4,125,1,1,0,0,0,740,1683,SU,0
4,126,1,0,1,0,0,740,916,SU,0
4,127,1,0,0,1,10,750,1966,SU,1
4,128,1,1,0,0,0,750,1633,SU,0
4,129,1,1,0,0,0,750,2183,SU,0
4,130,1,0,1,0,0,750,733,SU,0
4,131,1,1,0,0,0,750,1583,SU,0
4,132,1,0,1,0,0,750,3283,SU,0
4,133,1,0,1,0,0,750,1383,SU,0
4,134,1,1,0,0,0,750,10250,SU,0
4,135,1,0,0,1,10,760,2466,SU,1
4,136,1,1,0,0,0,760,933,SU,0
4,137,1,0,1,0,0,760,600,SU,0
4,138,1,1,1,1,10,770,2850,SU,1
4,139,1,1,0,0,0,770,800,SU,0
4,140,1,1,1,1,10,780,1233,SU,1
4,141,1,0,1,0,0,780,833,SU,0
4,142,1,0,1,0,0,780,1166,SU,0
4,143,1,1,0,0,0,780,950,SU,0
4,144,1,1,1,1,10,790,4616,SU,1
4,145,1,1,1,1,10,800,4583,SU,1
4,146,1,0,0,1,10,810,3233,SU,1
4,147,1,1,0,0,0,810,1450,SU,0
4,148,1,1,0,0,0,810,733,SU,0
4,149,1,0,1,0,0,810,1000,SU,0
4,150,1,1,0,0,0,810,4733,SU,0
4,151,1,0,1,0,0,810,4433,SU,0
4,152,1,1,1,1,10,820,1933,SU,1
4,153,1,0,1,0,0,820,1666,SU,0
4,154,1,1,0,0,0,820,1916,SU,0
4,155,1,1,0,0,0,820,3983,SU,0
4,156,1,0,1,0,0,820,650,SU,0
4,157,1,1,0,0,0,820,1533,SU,0
4,158,1,1,1,1,10,830,2083,SU,1
4,159,1,1,1,1,10,840,1900,SU,1
4,160,1,0,0,1,10,850,2050,SU,1
4,161,1,1,0,0,0,850,900,SU,0
4,162,1,0,0,1,10,860,2266,SU,1
4,163,1,1,0,0,0,860,716,SU,0
4,164,1,0,0,1,10,870,3850,SU,1
4,165,1,0,1,0,0,870,1050,SU,0
4,166,1,0,0,1,10,880,1216,SU,1
4,167,1,0,1,0,0,880,2666,SU,0
4,168,1,1,0,0,0,880,1550,SU,0
4,169,1,0,1,0,0,880,4933,SU,0
4,170,1,0,1,0,0,880,6866,SU,0
4,171,1,1,0,0,0,880,3600,SU,0
4,172,1,1,1,1,10,890,1800,SU,1
4,173,1,0,0,1,10,900,1866,SU,1
4,174,1,1,0,0,0,900,1283,SU,0
4,175,1,0,0,1,10,910,633,SU,1
4,176,1,0,0,1,10,920,1583,SU,1
4,177,1,1,1,1,10,930,1266,SU,1
4,178,1,0,0,1,10,940,1916,SU,1
4,179,1,0,1,0,0,940,2866,SU,0
4,180,1,1,0,0,0,940,1433,SU,0
4,181,1,0,0,1,10,950,4233,SU,1
4,182,1,1,1,1,10,960,1050,SU,1
4,183,1,0,0,1,10,970,2850,SU,1
4,184,1,0,1,0,0,970,2250,SU,0
4,185,1,1,1,1,10,980,1900,SU,1
4,186,1,0,1,0,0,980,900,SU,0
4,187,1,1,0,0,0,980,1717,SU,0
4,188,1,1,0,0,0,980,1333,SU,0
4,189,1,0,1,0,0,980,2666,SU,0
4,190,1,0,1,0,0,980,1566,SU,0
4,191,1,0,0,1,10,990,683,SU,1
4,192,1,0,0,1,10,1000,600,SU,1
4,193,1,0,0,1,10,1010,1166,SU,1
4,194,1,1,0,0,0,1010,550,SU,0
4,195,1,1,1,1,10,1020,1300,SU,1
4,196,1,0,1,0,0,1020,1266,SU,0
4,197,1,0,0,1,10,1030,5100,SU,1
4,198,1,0,0,1,10,1040,566,SU,1
4,199,1,0,0,1,10,1050,633,SU,1
4,200,1,0,1,0,0,1050,783,SU,0
5,1,1,0,1,0,0,0,2766,SU,0
5,2,1,0,0,1,10,10,8516,SU,1
5,3,1,0,0,1,10,20,2750,SU,1
5,4,1,0,1,0,0,20,3566,SU,0
5,5,1,0,0,1,10,30,2300,SU,1
5,6,1,1,0,0,0,30,10200,SU,0
5,7,1,1,1,1,10,40,2450,SU,1
5,8,1,0,1,0,0,40,5150,SU,0
5,9,1,1,0,0,0,40,2883,SU,0
5,10,1,1,1,1,10,50,2966,SU,1
5,11,1,0,0,1,10,60,3000,SU,1
5,12,1,0,0,1,10,70,4433,SU,1
5,13,1,0,0,1,10,80,9300,SU,1
5,14,1,0,0,1,10,90,1366,SU,1
5,15,1,1,0,0,0,90,5050,SU,0
5,16,1,1,0,0,0,90,1916,SU,0
5,17,1,1,0,0,0,90,1000,SU,0
5,18,1,0,1,0,0,90,866,SU,0
5,19,1,1,0,0,0,90,2450,SU,0
5,20,1,0,0,1,10,100,4183,SU,1
5,21,1,1,1,1,10,110,2550,SU,1
5,22,1,1,0,0,0,110,3016,SU,0
5,23,1,0,0,1,10,120,1600,SU,1
5,24,1,0,1,0,0,120,1816,SU,0
5,25,1,0,0,1,10,130,3533,SU,1
5,26,1,0,0,1,10,140,1016,SU,1
5,27,1,0,0,1,10,150,2616,SU,1
5,28,1,0,0,1,10,160,750,SU,1
5,29,1,1,1,1,10,170,1000,SU,1
5,30,1,1,1,1,10,180,1733,SU,1
5,31,1,0,1,0,0,180,2166,SU,0
5,32,1,0,0,1,10,190,983,SU,1
5,33,1,0,0,1,10,200,1233,SU,1
5,34,1,1,1,1,10,210,1066,SU,1
5,35,1,1,1,1,10,220,783,SU,1
5,36,1,1,1,1,10,230,1100,SU,1
5,37,1,0,0,1,10,240,583,SU,1
5,38,1,1,1,1,10,250,883,SU,1
5,39,1,0,0,1,10,260,916,SU,1
5,40,1,1,1,1,10,270,1566,SU,1
5,41,1,1,0,0,0,270,666,SU,0
5,42,1,1,1,1,10,280,900,SU,1
5,43,1,1,1,1,10,290,766,SU,1
5,44,1,1,0,0,0,290,583,SU,0
5,45,1,1,1,1,10,300,783,SU,1
5,46,1,0,0,1,10,310,683,SU,1
5,47,1,1,1,1,10,320,916,SU,1
5,48,1,0,0,1,10,330,1766,SU,1
5,49,1,1,0,0,0,330,883,SU,0
5,50,1,0,0,1,10,340,883,SU,1
5,51,1,1,1,1,10,350,750,SU,1
5,52,1,0,0,1,10,360,500,SU,1
5,53,1,1,1,1,10,370,533,SU,1
5,54,1,0,1,0,0,370,850,SU,0
5,55,1,1,1,1,10,380,966,SU,1
5,56,1,0,0,1,10,390,866,SU,1
5,57,1,1,0,0,0,390,566,SU,0
5,58,1,1,0,0,0,390,550,SU,0
5,59,1,1,0,0,0,390,616,SU,0
5,60,1,1,1,1,10,400,750,SU,1
5,61,1,0,0,1,10,410,1000,SU,1
5,62,1,0,0,1,10,420,516,SU,1
5,63,1,0,0,1,10,430,766,SU,1
5,64,1,0,0,1,10,440,566,SU,1
5,65,1,1,1,1,10,450,666,SU,1
5,66,1,1,1,1,10,460,717,SU,1
5,67,1,0,0,1,10,470,1183,SU,1
5,68,1,0,0,1,10,480,850,SU,1
5,69,1,1,1,1,10,490,816,SU,1
5,70,1,0,0,1,10,500,716,SU,1
5,71,1,1,1,1,10,510,1083,SU,1
5,72,1,1,0,0,0,510,766,SU,0
5,73,1,1,0,0,0,510,766,SU,0
5,74,1,1,0,0,0,510,650,SU,0
5,75,1,0,0,1,10,520,817,SU,1
5,76,1,1,0,0,0,520,633,SU,0
5,77,1,0,0,1,10,530,683,SU,1
5,78,1,0,0,1,10,540,550,SU,1
5,79,1,0,0,1,10,550,1033,SU,1
5,80,1,1,1,1,10,560,983,SU,1
5,81,1,0,0,1,10,570,733,SU,1
5,82,1,0,0,1,10,580,883,SU,1
5,83,1,1,1,1,10,590,733,SU,1
5,84,1,0,1,0,0,590,1083,SU,0
5,85,1,1,1,1,10,600,866,SU,1
5,86,1,1,1,1,10,610,750,SU,1
5,87,1,0,0,1,10,620,1350,SU,1
5,88,1,1,1,1,10,630,833,SU,1
5,89,1,0,0,1,10,640,533,SU,1
5,90,1,1,1,1,10,650,733,SU,1
5,91,1,1,1,1,10,660,566,SU,1
5,92,1,0,0,1,10,670,633,SU,1
5,93,1,0,0,1,10,680,650,SU,1
5,94,1,1,1,1,10,690,833,SU,1
5,95,1,0,0,1,10,700,700,SU,1
5,96,1,1,1,1,10,710,800,SU,1
5,97,1,1,1,1,10,720,833,SU,1
5,98,1,0,0,1,10,730,583,SU,1
5,99,1,1,1,1,10,740,866,SU,1
5,100,1,0,0,1,10,750,633,SU,1
5,101,0,0,1,0,0,750,633,SU,0
5,102,0,0,1,0,0,750,1000,SU,0
5,103,0,1,1,1,10,760,600,SU,1
5,104,0,1,0,0,0,760,999,SU,0
5,105,0,0,1,0,0,760,866,SU,0
5,106,0,1,0,0,0,760,666,SU,0
5,107,0,1,0,0,0,760,783,SU,0
5,108,0,1,1,1,10,770,1833,SU,1
5,109,0,1,1,1,10,780,3400,SU,1
5,110,0,1,1,1,10,790,800,SU,1
5,111,0,1,1,1,10,800,883,SU,1
5,112,0,0,0,1,10,810,600,SU,1
5,113,0,0,0,1,10,820,916,SU,1
5,114,0,0,0,1,10,830,1066,SU,1
5,115,0,0,0,1,10,840,516,SU,1
5,116,0,0,0,1,10,850,816,SU,1
5,117,0,0,0,1,10,860,650,SU,1
5,118,0,1,1,1,10,870,716,SU,1
5,119,0,0,0,1,10,880,1183,SU,1
5,120,0,1,1,1,10,890,683,SU,1
5,121,0,0,0,1,10,900,683,SU,1
5,122,0,1,0,0,0,900,633,SU,0
5,123,0,0,0,1,10,910,1100,SU,1
5,124,0,1,1,1,10,920,816,SU,1
5,125,0,1,1,1,10,930,666,SU,1
5,126,0,0,0,1,10,940,766,SU,1
5,127,0,0,0,1,10,950,566,SU,1
5,128,0,0,0,1,10,960,666,SU,1
5,129,0,0,1,0,0,960,750,SU,0
5,130,0,0,0,1,10,970,483,SU,1
5,131,0,0,0,1,10,980,1016,SU,1
5,132,0,0,0,1,10,990,1033,SU,1
5,133,0,1,1,1,10,1000,633,SU,1
5,134,0,0,0,1,10,1010,616,SU,1
5,135,0,1,0,0,0,1010,633,SU,0
5,136,0,1,0,0,0,1010,866,SU,0
5,137,0,1,0,0,0,1010,550,SU,0
5,138,0,1,0,0,0,1010,816,SU,0
5,139,0,1,1,1,10,1020,766,SU,1
5,140,0,0,1,0,0,1020,600,SU,0
5,141,0,1,0,0,0,1020,966,SU,0
5,142,0,0,1,0,0,1020,1416,SU,0
5,143,0,0,0,1,10,1030,1783,SU,1
5,144,0,0,0,1,10,1040,1516,SU,1
5,145,0,1,1,1,10,1050,616,SU,1
5,146,0,0,0,1,10,1060,783,SU,1
5,147,0,0,0,1,10,1070,566,SU,1
5,148,0,1,0,0,0,1070,716,SU,0
5,149,0,0,0,1,10,1080,700,SU,1
5,150,0,0,1,0,0,1080,716,SU,0
5,151,0,0,0,1,10,1090,516,SU,1
5,152,0,0,0,1,10,1100,700,SU,1
5,153,0,1,1,1,10,1110,783,SU,1
5,154,0,1,1,1,10,1120,700,SU,1
5,155,0,0,0,1,10,1130,633,SU,1
5,156,0,1,0,0,0,1130,533,SU,0
5,157,0,1,0,0,0,1130,1516,SU,0
5,158,0,1,0,0,0,1130,516,SU,0
5,159,0,1,1,1,10,1140,966,SU,1
5,160,0,1,1,1,10,1150,633,SU,1
5,161,0,1,0,0,0,1150,800,SU,0
5,162,0,0,0,1,10,1160,583,SU,1
5,163,0,1,1,1,10,1170,700,SU,1
5,164,0,0,0,1,10,1180,616,SU,1
5,165,0,0,0,1,10,1190,650,SU,1
5,166,0,1,1,1,10,1200,766,SU,1
5,167,0,1,1,1,10,1210,733,SU,1
5,168,0,1,0,0,0,1210,1133,SU,0
5,169,0,1,0,0,0,1210,683,SU,0
5,170,0,1,0,0,0,1210,600,SU,0
5,171,0,0,0,1,10,1220,600,SU,1
5,172,0,0,0,1,10,1230,650,SU,1
5,173,0,0,0,1,10,1240,716,SU,1
5,174,0,0,0,1,10,1250,516,SU,1
5,175,0,0,1,0,0,1250,733,SU,0
5,176,0,1,0,0,0,1250,1066,SU,0
5,177,0,1,0,0,0,1250,1066,SU,0
5,178,0,1,1,1,10,1260,916,SU,1
5,179,0,1,1,1,10,1270,583,SU,1
5,180,0,0,1,0,0,1270,733,SU,0
5,181,0,0,0,1,10,1280,1066,SU,1
5,182,0,1,1,1,10,1290,816,SU,1
5,183,0,0,0,1,10,1300,866,SU,1
5,184,0,1,0,0,0,1300,783,SU,0
5,185,0,1,0,0,0,1300,566,SU,0
5,186,0,1,0,0,0,1300,850,SU,0
5,187,0,0,0,1,10,1310,516,SU,1
5,188,0,0,0,1,10,1320,833,SU,1
5,189,0,0,0,1,10,1330,750,SU,1
5,190,0,1,0,0,0,1330,1050,SU,0
5,191,0,1,1,1,10,1340,816,SU,1
5,192,0,0,0,1,10,1350,766,SU,1
5,193,0,0,0,1,10,1360,850,SU,1
5,194,0,1,0,0,0,1360,833,SU,0
5,195,0,0,0,1,10,1370,616,SU,1
5,196,0,0,0,1,10,1380,700,SU,1
5,197,0,1,1,1,10,1390,666,SU,1
5,198,0,1,1,1,10,1400,783,SU,1
5,199,0,1,0,0,0,1400,850,SU,0
5,200,0,0,0,1,10,1410,933,SU,1
6,1,1,0,0,1,10,10,1250,SU,1
6,2,1,1,1,1,10,20,1816,SU,1
6,3,1,0,1,0,0,20,1383,SU,0
6,4,1,1,0,0,0,20,2933,SU,0
6,5,1,1,0,0,0,20,1783,SU,0
6,6,1,1,1,1,10,30,550,SU,1
6,7,1,1,1,1,10,40,2883,SU,1
6,8,1,0,1,0,0,40,1050,SU,0
6,9,1,1,1,1,10,50,2700,SU,1
6,10,1,1,1,1,10,60,2366,SU,1
6,11,1,1,1,1,10,70,1083,SU,1
6,12,1,1,1,1,10,80,800,SU,1
6,13,1,0,1,0,0,80,1016,SU,0
6,14,1,0,1,0,0,80,1166,SU,0
6,15,1,0,0,1,10,90,750,SU,1
6,16,1,0,0,1,10,100,850,SU,1
6,17,1,1,0,0,0,100,1466,SU,0
6,18,1,1,0,0,0,100,1600,SU,0
6,19,1,0,1,0,0,100,750,SU,0
6,20,1,0,1,0,0,100,1900,SU,0
6,21,1,0,1,0,0,100,1750,SU,0
6,22,1,0,0,1,10,110,733,SU,1
6,23,1,1,1,1,10,120,1483,SU,1
6,24,1,1,0,0,0,120,2250,SU,0
6,25,1,1,1,1,10,130,566,SU,1
6,26,1,0,1,0,0,130,666,SU,0
6,27,1,0,1,0,0,130,1133,SU,0
6,28,1,1,1,1,10,140,1850,SU,1
6,29,1,1,1,1,10,150,1066,SU,1
6,30,1,1,1,1,10,160,1950,SU,1
6,31,1,0,0,1,10,170,1916,SU,1
6,32,1,0,0,1,10,180,1600,SU,1
6,33,1,0,0,1,10,190,550,SU,1
6,34,1,1,1,1,10,200,1533,SU,1
6,35,1,1,1,1,10,210,766,SU,1
6,36,1,0,0,1,10,220,1316,SU,1
6,37,1,1,0,0,0,220,633,SU,0
6,38,1,0,1,0,0,220,1983,SU,0
6,39,1,1,1,1,10,230,1550,SU,1
6,40,1,0,0,1,10,240,716,SU,1
6,41,1,1,1,1,10,250,1516,SU,1
6,42,1,1,1,1,10,260,1433,SU,1
6,43,1,1,1,1,10,270,883,SU,1
6,44,1,0,1,0,0,270,3533,SU,0
6,45,1,1,1,1,10,280,3850,SU,1
6,46,1,1,1,1,10,290,800,SU,1
6,47,1,1,1,1,10,300,1800,SU,1
6,48,1,0,0,1,10,310,566,SU,1
6,49,1,0,0,1,10,320,850,SU,1
6,50,1,1,0,0,0,320,2800,SU,0
6,51,1,1,0,0,0,320,1150,SU,0
6,52,1,0,1,0,0,320,716,SU,0
6,53,1,1,1,1,10,330,1600,SU,1
6,54,1,0,0,1,10,340,1566,SU,1
6,55,1,0,0,1,10,350,1750,SU,1
6,56,1,0,0,1,10,360,983,SU,1
6,57,1,1,1,1,10,370,800,SU,1
6,58,1,0,0,1,10,380,1250,SU,1
6,59,1,1,1,1,10,390,1450,SU,1
6,60,1,0,0,1,10,400,2366,SU,1
6,61,1,1,0,0,0,400,1150,SU,0
6,62,1,0,1,0,0,400,1166,SU,0
6,63,1,1,1,1,10,410,983,SU,1
6,64,1,0,1,0,0,410,1600,SU,0
6,65,1,0,0,1,10,420,1100,SU,1
6,66,1,0,0,1,10,430,700,SU,1
6,67,1,0,0,1,10,440,766,SU,1
6,68,1,0,0,1,10,450,2116,SU,1
6,69,1,0,1,0,0,450,533,SU,0
6,70,1,0,1,0,0,450,1550,SU,0
6,71,1,0,0,1,10,460,883,SU,1
6,72,1,0,0,1,10,470,983,SU,1
6,73,1,0,0,1,10,480,1150,SU,1
6,74,1,0,0,1,10,490,566,SU,1
6,75,1,0,0,1,10,500,733,SU,1
6,76,1,1,0,0,0,500,633,SU,0
6,77,1,1,1,1,10,510,2550,SU,1
6,78,1,0,1,0,0,510,1250,SU,0
6,79,1,1,1,1,10,520,2200,SU,1
6,80,1,0,1,0,0,520,1366,SU,0
6,81,1,1,0,0,0,520,1916,SU,0
6,82,1,1,1,1,10,530,750,SU,1
6,83,1,0,1,0,0,530,983,SU,0
6,84,1,1,1,1,10,540,3333,SU,1
6,85,1,1,1,1,10,550,1433,SU,1
6,86,1,1,1,1,10,560,966,SU,1
6,87,1,0,1,0,0,560,1150,SU,0
6,88,1,0,0,1,10,570,866,SU,1
6,89,1,0,0,1,10,580,750,SU,1
6,90,1,1,0,0,0,580,1166,SU,0
6,91,1,0,0,1,10,590,650,SU,1
6,92,1,1,1,1,10,600,550,SU,1
6,93,1,1,1,1,10,610,866,SU,1
6,94,1,1,1,1,10,620,783,SU,1
6,95,1,1,1,1,10,630,1600,SU,1
6,96,1,1,1,1,10,640,750,SU,1
6,97,1,0,1,0,0,640,1366,SU,0
6,98,1,0,0,1,10,650,650,SU,1
6,99,1,1,1,1,10,660,2133,SU,1
6,100,1,1,1,1,10,670,900,SU,1
6,101,0,1,1,1,10,680,2216,SU,1
6,102,0,1,1,1,10,690,933,SU,1
6,103,0,1,1,1,10,700,1233,SU,1
6,104,0,0,1,0,0,700,816,SU,0
6,105,0,1,0,0,0,700,1183,SU,0
6,106,0,0,0,1,10,710,1516,SU,1
6,107,0,1,0,0,0,710,1616,SU,0
6,108,0,0,1,0,0,710,1983,SU,0
6,109,0,1,1,1,10,720,1000,SU,1
6,110,0,1,1,1,10,730,900,SU,1
6,111,0,0,1,0,0,730,1517,SU,0
6,112,0,0,0,1,10,740,1800,SU,1
6,113,0,1,1,1,10,750,4016,SU,1
6,114,0,1,1,1,10,760,699,SU,1
6,115,0,1,1,1,10,770,783,SU,1
6,116,0,1,1,1,10,780,883,SU,1
6,117,0,1,1,1,10,790,716,SU,1
6,118,0,1,1,1,10,800,950,SU,1
6,119,0,0,1,0,0,800,933,SU,0
6,120,0,0,0,1,10,810,750,SU,1
6,121,0,0,0,1,10,820,733,SU,1
6,122,0,0,0,1,10,830,766,SU,1
6,123,0,1,1,1,10,840,950,SU,1
6,124,0,1,0,0,0,840,1150,SU,0
6,125,0,0,0,1,10,850,750,SU,1
6,126,0,0,0,1,10,860,733,SU,1
6,127,0,1,0,0,0,860,750,SU,0
6,128,0,0,1,0,0,860,2266,SU,0
6,129,0,1,1,1,10,870,1066,SU,1
6,130,0,1,1,1,10,880,883,SU,1
6,131,0,1,1,1,10,890,1150,SU,1
6,132,0,0,1,0,0,890,833,SU,0
6,133,0,0,0,1,10,900,900,SU,1
6,134,0,0,0,1,10,910,716,SU,1
6,135,0,0,0,1,10,920,816,SU,1
6,136,0,0,0,1,10,930,916,SU,1
6,137,0,0,0,1,10,940,1100,SU,1
6,138,0,0,0,1,10,950,833,SU,1
6,139,0,0,0,1,10,960,566,SU,1
6,140,0,1,0,0,0,960,1166,SU,0
6,141,0,1,0,0,0,960,983,SU,0
6,142,0,0,0,1,10,970,866,SU,1
6,143,0,1,0,0,0,970,750,SU,0
6,144,0,0,1,0,0,970,750,SU,0
6,145,0,0,0,1,10,980,2133,SU,1
6,146,0,1,0,0,0,980,800,SU,0
6,147,0,0,0,1,10,990,1083,SU,1
6,148,0,1,0,0,0,990,683,SU,0
6,149,0,0,0,1,10,1000,1000,SU,1
6,150,0,0,0,1,10,1010,1316,SU,1
6,151,0,0,0,1,10,1020,616,SU,1
6,152,0,0,0,1,10,1030,900,SU,1
6,153,0,0,0,1,10,1040,633,SU,1
6,154,0,1,1,1,10,1050,850,SU,1
6,155,0,0,0,1,10,1060,1166,SU,1
6,156,0,1,1,1,10,1070,3366,SU,1
6,157,0,0,0,1,10,1080,783,SU,1
6,158,0,1,1,1,10,1090,1683,SU,1
6,159,0,1,1,1,10,1100,2233,SU,1
6,160,0,1,1,1,10,1110,1150,SU,1
6,161,0,0,1,0,0,1110,1233,SU,0
6,162,0,1,1,1,10,1120,5183,SU,1
6,163,0,0,1,0,0,1120,1300,SU,0
6,164,0,1,1,1,10,1130,1800,SU,1
6,165,0,0,0,1,10,1140,3216,SU,1
6,166,0,0,0,1,10,1150,950,SU,1
6,167,0,1,0,0,0,1150,666,SU,0
6,168,0,1,1,1,10,1160,2833,SU,1
6,169,0,0,1,0,0,1160,1850,SU,0
6,170,0,1,1,1,10,1170,2500,SU,1
6,171,0,1,1,1,10,1180,5083,SU,1
6,172,0,0,0,1,10,1190,1900,SU,1
6,173,0,1,0,0,0,1190,1466,SU,0
6,174,0,0,0,1,10,1200,4000,SU,1
6,175,0,0,0,1,10,1210,1066,SU,1
6,176,0,0,0,1,10,1220,933,SU,1
6,177,0,0,0,1,10,1230,683,SU,1
6,178,0,1,0,0,0,1230,1500,SU,0
6,179,0,0,0,1,10,1240,1950,SU,1
6,180,0,0,0,1,10,1250,683,SU,1
6,181,0,0,1,0,0,1250,1750,SU,0
6,182,0,1,1,1,10,1260,816,SU,1
6,183,0,1,1,1,10,1270,866,SU,1
6,184,0,0,1,0,0,1270,783,SU,0
6,185,0,1,0,0,0,1270,1366,SU,0
6,186,0,1,1,1,10,1280,783,SU,1
6,187,0,0,1,0,0,1280,1083,SU,0
6,188,0,0,0,1,10,1290,1683,SU,1
6,189,0,0,0,1,10,1300,683,SU,1
6,190,0,1,0,0,0,1300,1050,SU,0
6,191,0,1,0,0,0,1300,1366,SU,0
6,192,0,1,1,1,10,1310,1200,SU,1
6,193,0,1,0,0,0,1310,1666,SU,0
6,194,0,1,1,1,10,1320,1233,SU,1
6,195,0,0,1,0,0,1320,966,SU,0
6,196,0,1,0,0,0,1320,1666,SU,0
6,197,0,0,0,1,10,1330,883,SU,1
6,198,0,1,1,1,10,1340,1066,SU,1
6,199,0,1,1,1,10,1350,1500,SU,1
6,200,0,1,0,0,0,1350,2450,SU,0
7,1,0,0,1,0,0,0,1134,SU,0
7,2,0,1,1,1,10,10,1216,SU,1
7,3,0,1,1,1,10,20,567,SU,1
7,4,0,0,1,0,0,20,666,SU,0
7,5,0,1,1,1,10,30,831,SU,1
7,6,0,0,1,0,0,30,666,SU,0
7,7,0,1,0,0,0,30,668,SU,0
7,8,0,0,0,1,10,40,633,SU,1
7,9,0,0,1,0,0,40,616,SU,0
7,10,0,0,0,1,10,50,550,SU,1
7,11,0,1,1,1,10,60,683,SU,1
7,12,0,0,0,1,10,70,716,SU,1
7,13,0,0,0,1,10,80,633,SU,1
7,14,0,0,0,1,10,90,616,SU,1
7,15,0,0,0,1,10,100,816,SU,1
7,16,0,0,1,0,0,100,750,SU,0
7,17,0,1,1,1,10,110,666,SU,1
7,18,0,0,0,1,10,120,550,SU,1
7,19,0,1,1,1,10,130,633,SU,1
7,20,0,1,1,1,10,140,1116,SU,1
7,21,0,0,0,1,10,150,583,SU,1
7,22,0,1,1,1,10,160,800,SU,1
7,23,0,0,0,1,10,170,533,SU,1
7,24,0,1,1,1,10,180,650,SU,1
7,25,0,0,0,1,10,190,616,SU,1
7,26,0,0,1,0,0,190,550,SU,0
7,27,0,1,1,1,10,200,666,SU,1
7,28,0,1,0,0,0,200,833,SU,0
7,29,0,1,0,0,0,200,766,SU,0
7,30,0,0,0,1,10,210,717,SU,1
7,31,0,0,0,1,10,220,800,SU,1
7,32,0,1,0,0,0,220,616,SU,0
7,33,0,1,1,1,10,230,566,SU,1
7,34,0,0,0,1,10,240,666,SU,1
7,35,0,1,1,1,10,250,583,SU,1
7,36,0,1,0,0,0,250,1033,SU,0
7,37,0,1,0,0,0,250,516,SU,0
7,38,0,1,1,1,10,260,666,SU,1
7,39,0,0,0,1,10,270,616,SU,1
7,40,0,0,0,1,10,280,700,SU,1
7,41,0,1,1,1,10,290,800,SU,1
7,42,0,0,0,1,10,300,600,SU,1
7,43,0,1,0,0,0,300,766,SU,0
7,44,0,1,0,0,0,300,600,SU,0
7,45,0,0,0,1,10,310,750,SU,1
7,46,0,1,0,0,0,310,600,SU,0
7,47,0,0,0,1,10,320,1250,SU,1
7,48,0,0,0,1,10,330,616,SU,1
7,49,0,1,0,0,0,330,633,SU,0
7,50,0,0,1,0,0,330,883,SU,0
7,51,0,1,1,1,10,340,1050,SU,1
7,52,0,1,1,1,10,350,783,SU,1
7,53,0,1,1,1,10,360,1233,SU,1
7,54,0,0,0,1,10,370,800,SU,1
7,55,0,1,1,1,10,380,550,SU,1
7,56,0,0,0,1,10,390,900,SU,1
7,57,0,0,0,1,10,400,967,SU,1
7,58,0,0,1,0,0,400,633,SU,0
7,59,0,0,0,1,10,410,566,SU,1
7,60,0,1,0,0,0,410,816,SU,0
7,61,0,1,0,0,0,410,616,SU,0
7,62,0,0,0,1,10,420,566,SU,1
7,63,0,1,0,0,0,420,550,SU,0
7,64,0,0,0,1,10,430,616,SU,1
7,65,0,0,1,0,0,430,783,SU,0
7,66,0,0,1,0,0,430,800,SU,0
7,67,0,0,1,0,0,430,950,SU,0
7,68,0,1,0,0,0,430,716,SU,0
7,69,0,0,1,0,0,430,750,SU,0
7,70,0,0,0,1,10,440,516,SU,1
7,71,0,0,0,1,10,450,783,SU,1
7,72,0,1,1,1,10,460,566,SU,1
7,73,0,1,0,0,0,460,766,SU,0
7,74,0,0,0,1,10,470,950,SU,1
7,75,0,1,1,1,10,480,650,SU,1
7,76,0,0,1,0,0,480,816,SU,0
7,77,0,0,0,1,10,490,733,SU,1
7,78,0,1,0,0,0,490,666,SU,0
7,79,0,1,0,0,0,490,1050,SU,0
7,80,0,1,0,0,0,490,600,SU,0
7,81,0,0,0,1,10,500,483,SU,1
7,82,0,0,0,1,10,510,550,SU,1
7,83,0,1,0,0,0,510,583,SU,0
7,84,0,1,0,0,0,510,533,SU,0
7,85,0,0,0,1,10,520,666,SU,1
7,86,0,0,1,0,0,520,583,SU,0
7,87,0,0,0,1,10,530,766,SU,1
7,88,0,1,1,1,10,540,583,SU,1
7,89,0,1,0,0,0,540,550,SU,0
7,90,0,1,0,0,0,540,550,SU,0
7,91,0,1,0,0,0,540,916,SU,0
7,92,0,1,0,0,0,540,600,SU,0
7,93,0,1,0,0,0,540,533,SU,0
7,94,0,1,0,0,0,540,483,SU,0
7,95,0,0,0,1,10,550,566,SU,1
7,96,0,1,1,1,10,560,816,SU,1
7,97,0,1,0,0,0,560,1350,SU,0
7,98,0,0,0,1,10,570,700,SU,1
7,99,0,1,1,1,10,580,850,SU,1
7,100,0,0,0,1,10,590,616,SU,1
7,101,1,0,1,0,0,590,716,SU,0
7,102,1,1,1,1,10,600,666,SU,1
7,103,1,1,1,1,10,610,650,SU,1
7,104,1,1,1,1,10,620,716,SU,1
7,105,1,1,1,1,10,630,566,SU,1
7,106,1,0,1,0,0,630,633,SU,0
7,107,1,1,1,1,10,640,650,SU,1
7,108,1,0,1,0,0,640,800,SU,0
7,109,1,0,1,0,0,640,650,SU,0
7,110,1,1,0,0,0,640,800,SU,0
7,111,1,1,1,1,10,650,716,SU,1
7,112,1,1,1,1,10,660,600,SU,1
7,113,1,0,0,1,10,670,799,SU,1
7,114,1,1,1,1,10,680,566,SU,1
7,115,1,0,1,0,0,680,683,SU,0
7,116,1,0,0,1,10,690,716,SU,1
7,117,1,1,0,0,0,690,1016,SU,0
7,118,1,0,1,0,0,690,766,SU,0
7,119,1,1,0,0,0,690,566,SU,0
7,120,1,0,1,0,0,690,566,SU,0
7,121,1,1,0,0,0,690,866,SU,0
7,122,1,0,1,0,0,690,500,SU,0
7,123,1,1,1,1,10,700,633,SU,1
7,124,1,1,1,1,10,710,700,SU,1
7,125,1,0,0,1,10,720,516,SU,1
7,126,1,1,1,1,10,730,750,SU,1
7,127,1,1,0,0,0,730,566,SU,0
7,128,1,0,0,1,10,740,483,SU,1
7,129,1,0,0,1,10,750,816,SU,1
7,130,1,0,0,1,10,760,733,SU,1
7,131,1,1,0,0,0,760,633,SU,0
7,132,1,0,0,1,10,770,566,SU,1
7,133,1,0,0,1,10,780,633,SU,1
7,134,1,0,1,0,0,780,566,SU,0
7,135,1,0,0,1,10,790,583,SU,1
7,136,1,1,0,0,0,790,716,SU,0
7,137,1,0,0,1,10,800,500,SU,1
7,138,1,1,0,0,0,800,550,SU,0
7,139,1,0,0,1,10,810,600,SU,1
7,140,1,1,1,1,10,820,533,SU,1
7,141,1,0,1,0,0,820,533,SU,0
7,142,1,1,0,0,0,820,800,SU,0
7,143,1,0,1,0,0,820,716,SU,0
7,144,1,1,1,1,10,830,1116,SU,1
7,145,1,1,0,0,0,830,633,SU,0
7,146,1,0,1,0,0,830,600,SU,0
7,147,1,1,1,1,10,840,766,SU,1
7,148,1,1,0,0,0,840,566,SU,0
7,149,1,0,0,1,10,850,666,SU,1
7,150,1,1,1,1,10,860,550,SU,1
7,151,1,1,1,1,10,870,666,SU,1
7,152,1,1,1,1,10,880,566,SU,1
7,153,1,0,1,0,0,880,650,SU,0
7,154,1,1,0,0,0,880,533,SU,0
7,155,1,1,0,0,0,880,916,SU,0
7,156,1,0,0,1,10,890,683,SU,1
7,157,1,1,0,0,0,890,633,SU,0
7,158,1,0,0,1,10,900,850,SU,1
7,159,1,0,0,1,10,910,600,SU,1
7,160,1,0,0,1,10,920,816,SU,1
7,161,1,0,0,1,10,930,616,SU,1
7,162,1,0,1,0,0,930,616,SU,0
7,163,1,1,0,0,0,930,583,SU,0
7,164,1,1,0,0,0,930,516,SU,0
7,165,1,0,1,0,0,930,566,SU,0
7,166,1,0,0,1,10,940,750,SU,1
7,167,1,0,0,1,10,950,550,SU,1
7,168,1,0,1,0,0,950,950,SU,0
7,169,1,0,0,1,10,960,766,SU,1
7,170,1,1,1,1,10,970,783,SU,1
7,171,1,1,0,0,0,970,616,SU,0
7,172,1,1,1,1,10,980,650,SU,1
7,173,1,0,1,0,0,980,566,SU,0
7,174,1,0,1,0,0,980,900,SU,0
7,175,1,0,0,1,10,990,666,SU,1
7,176,1,0,0,1,10,1000,783,SU,1
7,177,1,1,0,0,0,1000,650,SU,0
7,178,1,1,1,1,10,1010,683,SU,1
7,179,1,1,1,1,10,1020,1216,SU,1
7,180,1,1,0,0,0,1020,933,SU,0
7,181,1,0,1,0,0,1020,816,SU,0
7,182,1,0,0,1,10,1030,700,SU,1
7,183,1,0,0,1,10,1040,566,SU,1
7,184,1,0,0,1,10,1050,716,SU,1
7,185,1,0,0,1,10,1060,566,SU,1
7,186,1,1,0,0,0,1060,533,SU,0
7,187,1,1,0,0,0,1060,583,SU,0
7,188,1,1,1,1,10,1070,533,SU,1
7,189,1,1,1,1,10,1080,633,SU,1
7,190,1,1,1,1,10,1090,766,SU,1
7,191,1,1,1,1,10,1100,666,SU,1
7,192,1,0,1,0,0,1100,583,SU,0
7,193,1,1,1,1,10,1110,633,SU,1
7,194,1,0,1,0,0,1110,650,SU,0
7,195,1,0,1,0,0,1110,583,SU,0
7,196,1,0,1,0,0,1110,533,SU,0
7,197,1,1,0,0,0,1110,750,SU,0
7,198,1,0,1,0,0,1110,1333,SU,0
7,199,1,1,0,0,0,1110,600,SU,0
7,200,1,1,1,1,10,1120,566,SU,1
8,1,1,1,1,1,10,10,1050,SU,1
8,2,1,0,1,0,0,10,2566,SU,0
8,3,1,1,1,1,10,20,766,SU,1
8,4,1,1,1,1,10,30,700,SU,1
8,5,1,0,1,0,0,30,750,SU,0
8,6,1,1,1,1,10,40,833,SU,1
8,7,1,1,1,1,10,50,750,SU,1
8,8,1,0,0,1,10,60,883,SU,1
8,9,1,1,1,1,10,70,733,SU,1
8,10,1,0,1,0,0,70,750,SU,0
8,11,1,0,1,0,0,70,916,SU,0
8,12,1,1,1,1,10,80,650,SU,1
8,13,1,0,0,1,10,90,850,SU,1
8,14,1,1,1,1,10,100,1116,SU,1
8,15,1,0,0,1,10,110,850,SU,1
8,16,1,1,1,1,10,120,750,SU,1
8,17,1,0,1,0,0,120,700,SU,0
8,18,1,1,1,1,10,130,750,SU,1
8,19,1,1,1,1,10,140,733,SU,1
8,20,1,0,0,1,10,150,1383,SU,1
8,21,1,1,1,1,10,160,2116,SU,1
8,22,1,1,1,1,10,170,633,SU,1
8,23,1,1,1,1,10,180,900,SU,1
8,24,1,1,1,1,10,190,933,SU,1
8,25,1,0,0,1,10,200,1000,SU,1
8,26,1,0,0,1,10,210,900,SU,1
8,27,1,1,0,0,0,210,1000,SU,0
8,28,1,1,0,0,0,210,816,SU,0
8,29,1,0,0,1,10,220,833,SU,1
8,30,1,1,0,0,0,220,1283,SU,0
8,31,1,0,0,1,10,230,733,SU,1
8,32,1,0,0,1,10,240,966,SU,1
8,33,1,0,1,0,0,240,750,SU,0
8,34,1,1,1,1,10,250,833,SU,1
8,35,1,1,1,1,10,260,766,SU,1
8,36,1,1,1,1,10,270,716,SU,1
8,37,1,0,1,0,0,270,800,SU,0
8,38,1,1,1,1,10,280,800,SU,1
8,39,1,0,1,0,0,280,950,SU,0
8,40,1,0,0,1,10,290,816,SU,1
8,41,1,0,1,0,0,290,800,SU,0
8,42,1,0,1,0,0,290,616,SU,0
8,43,1,1,1,1,10,300,783,SU,1
8,44,1,0,1,0,0,300,1566,SU,0
8,45,1,0,0,1,10,310,716,SU,1
8,46,1,1,1,1,10,320,1166,SU,1
8,47,1,1,1,1,10,330,3933,SU,1
8,48,1,0,1,0,0,330,716,SU,0
8,49,1,0,0,1,10,340,966,SU,1
8,50,1,0,0,1,10,350,900,SU,1
8,51,1,1,1,1,10,360,883,SU,1
8,52,1,1,1,1,10,370,2833,SU,1
8,53,1,1,0,0,0,370,2166,SU,0
8,54,1,1,0,0,0,370,833,SU,0
8,55,1,0,1,0,0,370,1600,SU,0
8,56,1,0,1,0,0,370,2016,SU,0
8,57,1,0,0,1,10,380,983,SU,1
8,58,1,1,1,1,10,390,1666,SU,1
8,59,1,0,1,0,0,390,1633,SU,0
8,60,1,1,1,1,10,400,866,SU,1
8,61,1,0,0,1,10,410,1200,SU,1
8,62,1,1,1,1,10,420,2100,SU,1
8,63,1,0,0,1,10,430,766,SU,1
8,64,1,0,0,1,10,440,700,SU,1
8,65,1,0,0,1,10,450,666,SU,1
8,66,1,1,1,1,10,460,766,SU,1
8,67,1,0,0,1,10,470,866,SU,1
8,68,1,1,0,0,0,470,700,SU,0
8,69,1,0,1,0,0,470,750,SU,0
8,70,1,1,1,1,10,480,650,SU,1
8,71,1,0,0,1,10,490,1416,SU,1
8,72,1,0,0,1,10,500,700,SU,1
8,73,1,0,0,1,10,510,983,SU,1
8,74,1,1,1,1,10,520,883,SU,1
8,75,1,1,1,1,10,530,916,SU,1
8,76,1,1,1,1,10,540,983,SU,1
8,77,1,0,1,0,0,540,833,SU,0
8,78,1,0,0,1,10,550,800,SU,1
8,79,1,1,1,1,10,560,850,SU,1
8,80,1,1,1,1,10,570,766,SU,1
8,81,1,1,1,1,10,580,1083,SU,1
8,82,1,0,0,1,10,590,816,SU,1
8,83,1,1,0,0,0,590,783,SU,0
8,84,1,1,0,0,0,590,1650,SU,0
8,85,1,1,1,1,10,600,1716,SU,1
8,86,1,0,0,1,10,610,833,SU,1
8,87,1,1,1,1,10,620,1716,SU,1
8,88,1,0,0,1,10,630,783,SU,1
8,89,1,1,0,0,0,630,2550,SU,0
8,90,1,0,0,1,10,640,766,SU,1
8,91,1,0,0,1,10,650,833,SU,1
8,92,1,0,1,0,0,650,750,SU,0
8,93,1,1,0,0,0,650,633,SU,0
8,94,1,0,0,1,10,660,750,SU,1
8,95,1,0,0,1,10,670,833,SU,1
8,96,1,1,0,0,0,670,766,SU,0
8,97,1,0,0,1,10,680,750,SU,1
8,98,1,1,1,1,10,690,1733,SU,1
8,99,1,0,0,1,10,700,1266,SU,1
8,100,1,1,0,0,0,700,766,SU,0
8,101,0,1,0,0,0,700,850,SU,0
8,102,0,0,1,0,0,700,1100,SU,0
8,103,0,1,0,0,0,700,1000,SU,0
8,104,0,1,0,0,0,700,1583,SU,0
8,105,0,1,0,0,0,700,2283,SU,0
8,106,0,1,1,1,10,710,933,SU,1
8,107,0,0,1,0,0,710,683,SU,0
8,108,0,1,1,1,10,720,566,SU,1
8,109,0,1,0,0,0,720,850,SU,0
8,110,0,0,0,1,10,730,1916,SU,1
8,111,0,1,0,0,0,730,816,SU,0
8,112,0,0,1,0,0,730,733,SU,0
8,113,0,1,0,0,0,730,3600,SU,0
8,114,0,0,1,0,0,730,900,SU,0
8,115,0,0,0,1,10,740,1066,SU,1
8,116,0,0,0,1,10,750,1250,SU,1
8,117,0,0,1,0,0,750,633,SU,0
8,118,0,1,0,0,0,750,850,SU,0
8,119,0,0,0,1,10,760,1366,SU,1
8,120,0,1,0,0,0,760,833,SU,0
8,121,0,1,0,0,0,760,1600,SU,0
8,122,0,0,1,0,0,760,750,SU,0
8,123,0,0,0,1,10,770,4016,SU,1
8,124,0,0,0,1,10,780,1333,SU,1
8,125,0,0,0,1,10,790,950,SU,1
8,126,0,1,0,0,0,790,833,SU,0
8,127,0,0,1,0,0,790,966,SU,0
8,128,0,1,0,0,0,790,1633,SU,0
8,129,0,0,1,0,0,790,1100,SU,0
8,130,0,0,0,1,10,800,1333,SU,1
8,131,0,1,0,0,0,800,1050,SU,0
8,132,0,0,1,0,0,800,1216,SU,0
8,133,0,1,1,1,10,810,1550,SU,1
8,134,0,1,1,1,10,820,1083,SU,1
8,135,0,0,0,1,10,830,4833,SU,1
8,136,0,0,0,1,10,840,1466,SU,1
8,137,0,1,0,0,0,840,750,SU,0
8,138,0,0,0,1,10,850,850,SU,1
8,139,0,0,0,1,10,860,1250,SU,1
8,140,0,0,0,1,10,870,883,SU,1
8,141,0,0,0,1,10,880,750,SU,1
8,142,0,0,1,0,0,880,1150,SU,0
8,143,0,1,1,1,10,890,983,SU,1
8,144,0,1,1,1,10,900,1016,SU,1
8,145,0,0,0,1,10,910,800,SU,1
8,146,0,1,1,1,10,920,1033,SU,1
8,147,0,0,1,0,0,920,1200,SU,0
8,148,0,1,0,0,0,920,1550,SU,0
8,149,0,0,0,1,10,930,5100,SU,1
8,150,0,1,1,1,10,940,3433,SU,1
8,151,0,1,1,1,10,950,1066,SU,1
8,152,0,0,1,0,0,950,6950,SU,0
8,153,0,1,0,0,0,950,4250,SU,0
8,154,0,1,1,1,10,960,1000,SU,1
8,155,0,1,1,1,10,970,3333,SU,1
8,156,0,1,0,0,0,970,850,SU,0
8,157,0,1,1,1,10,980,1050,SU,1
8,158,0,1,1,1,10,990,933,SU,1
8,159,0,1,1,1,10,1000,800,SU,1
8,160,0,0,0,1,10,1010,1833,SU,1
8,161,0,0,1,0,0,1010,2316,SU,0
8,162,0,0,0,1,10,1020,1033,SU,1
8,163,0,0,0,1,10,1030,2966,SU,1
8,164,0,0,0,1,10,1040,1383,SU,1
8,165,0,1,1,1,10,1050,1116,SU,1
8,166,0,1,0,0,0,1050,1583,SU,0
8,167,0,0,0,1,10,1060,1666,SU,1
8,168,0,0,0,1,10,1070,1283,SU,1
8,169,0,0,1,0,0,1070,2250,SU,0
8,170,0,0,0,1,10,1080,1016,SU,1
8,171,0,0,1,0,0,1080,4466,SU,0
8,172,0,1,1,1,10,1090,1683,SU,1
8,173,0,1,1,1,10,1100,1833,SU,1
8,174,0,0,0,1,10,1110,1250,SU,1
8,175,0,0,0,1,10,1120,4433,SU,1
8,176,0,1,1,1,10,1130,2683,SU,1
8,177,0,0,0,1,10,1140,1117,SU,1
8,178,0,1,1,1,10,1150,1033,SU,1
8,179,0,1,0,0,0,1150,1516,SU,0
8,180,0,1,0,0,0,1150,4566,SU,0
8,181,0,1,1,1,10,1160,2016,SU,1
8,182,0,0,1,0,0,1160,3116,SU,0
8,183,0,1,1,1,10,1170,1433,SU,1
8,184,0,1,0,0,0,1170,1433,SU,0
8,185,0,1,1,1,10,1180,2816,SU,1
8,186,0,0,0,1,10,1190,1533,SU,1
8,187,0,0,0,1,10,1200,1533,SU,1
8,188,0,1,1,1,10,1210,1383,SU,1
8,189,0,1,1,1,10,1220,2400,SU,1
8,190,0,1,0,0,0,1220,1483,SU,0
8,191,0,0,0,1,10,1230,1566,SU,1
8,192,0,0,1,0,0,1230,1833,SU,0
8,193,0,1,1,1,10,1240,1433,SU,1
8,194,0,0,0,1,10,1250,1066,SU,1
8,195,0,0,1,0,0,1250,3633,SU,0
8,196,0,1,0,0,0,1250,1050,SU,0
8,197,0,0,0,1,10,1260,1433,SU,1
8,198,0,0,1,0,0,1260,1366,SU,0
8,199,0,1,0,0,0,1260,5950,SU,0
8,200,0,1,1,1,10,1270,1666,SU,1
9,1,0,1,1,1,10,10,2900,SU,1
9,2,0,1,1,1,10,20,1350,SU,1
9,3,0,0,0,1,10,30,1283,SU,1
9,4,0,1,1,1,10,40,2883,SU,1
9,5,0,1,1,1,10,50,1300,SU,1
9,6,0,1,0,0,0,50,1866,SU,0
9,7,0,1,0,0,0,50,716,SU,0
9,8,0,1,1,1,10,60,1733,SU,1
9,9,0,0,1,0,0,60,1083,SU,0
9,10,0,1,0,0,0,60,2750,SU,0
9,11,0,1,1,1,10,70,1533,SU,1
9,12,0,1,1,1,10,80,3066,SU,1
9,13,0,0,0,1,10,90,1550,SU,1
9,14,0,0,1,0,0,90,1350,SU,0
9,15,0,0,1,0,0,90,966,SU,0
9,16,0,0,1,0,0,90,1033,SU,0
9,17,0,1,0,0,0,90,1366,SU,0
9,18,0,0,1,0,0,90,2183,SU,0
9,19,0,1,1,1,10,100,1400,SU,1
9,20,0,0,1,0,0,100,1250,SU,0
9,21,0,0,1,0,0,100,3000,SU,0
9,22,0,0,0,1,10,110,1800,SU,1
9,23,0,1,1,1,10,120,1266,SU,1
9,24,0,0,0,1,10,130,1900,SU,1
9,25,0,1,1,1,10,140,1700,SU,1
9,26,0,1,1,1,10,150,2133,SU,1
9,27,0,1,0,0,0,150,3333,SU,0
9,28,0,1,1,1,10,160,1816,SU,1
9,29,0,0,0,1,10,170,1600,SU,1
9,30,0,0,0,1,10,180,1283,SU,1
9,31,0,1,1,1,10,190,900,SU,1
9,32,0,1,1,1,10,200,833,SU,1
9,33,0,0,1,0,0,200,1033,SU,0
9,34,0,1,1,1,10,210,833,SU,1
9,35,0,1,1,1,10,220,800,SU,1
9,36,0,0,1,0,0,220,750,SU,0
9,37,0,0,0,1,10,230,683,SU,1
9,38,0,1,1,1,10,240,1133,SU,1
9,39,0,1,1,1,10,250,783,SU,1
9,40,0,1,1,1,10,260,750,SU,1
9,41,0,0,0,1,10,270,966,SU,1
9,42,0,1,0,0,0,270,816,SU,0
9,43,0,0,0,1,10,280,2216,SU,1
9,44,0,0,0,1,10,290,833,SU,1
9,45,0,1,1,1,10,300,816,SU,1
9,46,0,0,0,1,10,310,1133,SU,1
9,47,0,0,0,1,10,320,600,SU,1
9,48,0,0,0,1,10,330,1116,SU,1
9,49,0,0,0,1,10,340,1100,SU,1
9,50,0,0,0,1,10,350,1066,SU,1
9,51,0,1,1,1,10,360,883,SU,1
9,52,0,1,1,1,10,370,1350,SU,1
9,53,0,0,0,1,10,380,1633,SU,1
9,54,0,0,0,1,10,390,1333,SU,1
9,55,0,1,1,1,10,400,867,SU,1
9,56,0,1,1,1,10,410,1033,SU,1
9,57,0,0,0,1,10,420,866,SU,1
9,58,0,0,0,1,10,430,783,SU,1
9,59,0,1,0,0,0,430,750,SU,0
9,60,0,0,1,0,0,430,1333,SU,0
9,61,0,1,1,1,10,440,1650,SU,1
9,62,0,1,1,1,10,450,900,SU,1
9,63,0,0,1,0,0,450,783,SU,0
9,64,0,1,0,0,0,450,950,SU,0
9,65,0,1,0,0,0,450,833,SU,0
9,66,0,0,0,1,10,460,816,SU,1
9,67,0,0,0,1,10,470,1066,SU,1
9,68,0,1,0,0,0,470,783,SU,0
9,69,0,1,0,0,0,470,900,SU,0
9,70,0,1,0,0,0,470,650,SU,0
9,71,0,0,0,1,10,480,516,SU,1
9,72,0,1,1,1,10,490,950,SU,1
9,73,0,1,0,0,0,490,1083,SU,0
9,74,0,0,0,1,10,500,766,SU,1
9,75,0,0,0,1,10,510,933,SU,1
9,76,0,1,0,0,0,510,600,SU,0
9,77,0,0,0,1,10,520,1066,SU,1
9,78,0,0,0,1,10,530,650,SU,1
9,79,0,0,0,1,10,540,850,SU,1
9,80,0,0,0,1,10,550,900,SU,1
9,81,0,0,0,1,10,560,666,SU,1
9,82,0,1,1,1,10,570,1616,SU,1
9,83,0,1,1,1,10,580,1450,SU,1
9,84,0,0,0,1,10,590,750,SU,1
9,85,0,0,0,1,10,600,633,SU,1
9,86,0,0,0,1,10,610,783,SU,1
9,87,0,0,1,0,0,610,966,SU,0
9,88,0,1,1,1,10,620,916,SU,1
9,89,0,1,1,1,10,630,733,SU,1
9,90,0,0,1,0,0,630,1083,SU,0
9,91,0,1,1,1,10,640,866,SU,1
9,92,0,0,0,1,10,650,716,SU,1
9,93,0,0,1,0,0,650,916,SU,0
9,94,0,1,1,1,10,660,850,SU,1
9,95,0,0,1,0,0,660,750,SU,0
9,96,0,1,1,1,10,670,1133,SU,1
9,97,0,1,1,1,10,680,616,SU,1
9,98,0,1,1,1,10,690,716,SU,1
9,99,0,0,0,1,10,700,933,SU,1
9,100,0,0,0,1,10,710,883,SU,1
9,101,1,1,0,0,0,710,750,SU,0
9,102,1,0,1,0,0,710,1133,SU,0
9,103,1,0,1,0,0,710,600,SU,0
9,104,1,1,0,0,0,710,950,SU,0
9,105,1,0,1,0,0,710,883,SU,0
9,106,1,0,1,0,0,710,800,SU,0
9,107,1,1,1,1,10,720,850,SU,1
9,108,1,1,1,1,10,730,1133,SU,1
9,109,1,0,0,1,10,740,1300,SU,1
9,110,1,1,0,0,0,740,716,SU,0
9,111,1,1,0,0,0,740,1000,SU,0
9,112,1,0,1,0,0,740,650,SU,0
9,113,1,0,1,0,0,740,1733,SU,0
9,114,1,1,0,0,0,740,1166,SU,0
9,115,1,0,1,0,0,740,1066,SU,0
9,116,1,1,0,0,0,740,816,SU,0
9,117,1,0,1,0,0,740,716,SU,0
9,118,1,1,0,0,0,740,1233,SU,0
9,119,1,1,0,0,0,740,916,SU,0
9,120,1,1,1,1,10,750,666,SU,1
9,121,1,0,0,1,10,760,933,SU,1
9,122,1,1,0,0,0,760,916,SU,0
9,123,1,1,0,0,0,760,800,SU,0
9,124,1,1,0,0,0,760,2183,SU,0
9,125,1,0,0,1,10,770,1783,SU,1
9,126,1,0,0,1,10,780,1633,SU,1
9,127,1,1,0,0,0,780,1050,SU,0
9,128,1,0,1,0,0,780,800,SU,0
9,129,1,0,0,1,10,790,716,SU,1
9,130,1,0,0,1,10,800,850,SU,1
9,131,1,1,0,0,0,800,1366,SU,0
9,132,1,1,1,1,10,810,1133,SU,1
9,133,1,0,0,1,10,820,1633,SU,1
9,134,1,1,0,0,0,820,1450,SU,0
9,135,1,0,0,1,10,830,1416,SU,1
9,136,1,1,0,0,0,830,1050,SU,0
9,137,1,0,0,1,10,840,1100,SU,1
9,138,1,0,1,0,0,840,2300,SU,0
9,139,1,1,0,0,0,840,1516,SU,0
9,140,1,1,0,0,0,840,1866,SU,0
9,141,1,0,1,0,0,840,850,SU,0
9,142,1,1,0,0,0,840,750,SU,0
9,143,1,1,1,1,10,850,716,SU,1
9,144,1,0,1,0,0,850,700,SU,0
9,145,1,1,1,1,10,860,950,SU,1
9,146,1,1,0,0,0,860,1100,SU,0
9,147,1,0,1,0,0,860,666,SU,0
9,148,1,0,1,0,0,860,1216,SU,0
9,149,1,0,1,0,0,860,1033,SU,0
9,150,1,1,1,1,10,870,1400,SU,1
9,151,1,1,0,0,0,870,1000,SU,0
9,152,1,1,0,0,0,870,1333,SU,0
9,153,1,1,0,0,0,870,1433,SU,0
9,154,1,0,0,1,10,880,1150,SU,1
9,155,1,0,0,1,10,890,1350,SU,1
9,156,1,1,0,0,0,890,2366,SU,0
9,157,1,0,1,0,0,890,1000,SU,0
9,158,1,0,0,1,10,900,2233,SU,1
9,159,1,0,0,1,10,910,783,SU,1
9,160,1,1,0,0,0,910,850,SU,0
9,161,1,0,0,1,10,920,1166,SU,1
9,162,1,0,1,0,0,920,1933,SU,0
9,163,1,1,0,0,0,920,2166,SU,0
9,164,1,0,0,1,10,930,1350,SU,1
9,165,1,0,1,0,0,930,2716,SU,0
9,166,1,0,1,0,0,930,933,SU,0
9,167,1,1,0,0,0,930,1216,SU,0
9,168,1,1,0,0,0,930,2450,SU,0
9,169,1,0,1,0,0,930,3450,SU,0
9,170,1,1,1,1,10,940,800,SU,1
9,171,1,1,1,1,10,950,733,SU,1
9,172,1,0,1,0,0,950,800,SU,0
9,173,1,1,0,0,0,950,1083,SU,0
9,174,1,0,1,0,0,950,750,SU,0
9,175,1,0,1,0,0,950,866,SU,0
9,176,1,0,0,1,10,960,883,SU,1
9,177,1,0,0,1,10,970,3316,SU,1
9,178,1,1,0,0,0,970,816,SU,0
9,179,1,0,0,1,10,980,1200,SU,1
9,180,1,1,0,0,0,980,1300,SU,0
9,181,1,1,0,0,0,980,1250,SU,0
9,182,1,0,0,1,10,990,1450,SU,1
9,183,1,1,0,0,0,990,916,SU,0
9,184,1,1,0,0,0,990,866,SU,0
9,185,1,1,0,0,0,990,766,SU,0
9,186,1,1,1,1,10,1000,1100,SU,1
9,187,1,0,1,0,0,1000,566,SU,0
9,188,1,0,0,1,10,1010,1316,SU,1
9,189,1,0,0,1,10,1020,1866,SU,1
9,190,1,1,0,0,0,1020,783,SU,0
9,191,1,0,1,0,0,1020,1450,SU,0
9,192,1,1,1,1,10,1030,933,SU,1
9,193,1,0,1,0,0,1030,933,SU,0
9,194,1,0,1,0,0,1030,1050,SU,0
9,195,1,1,1,1,10,1040,1333,SU,1
9,196,1,1,1,1,10,1050,1600,SU,1
9,197,1,0,1,0,0,1050,1116,SU,0
9,198,1,1,1,1,10,1060,766,SU,1
9,199,1,1,1,1,10,1070,1000,SU,1
9,200,1,0,0,1,10,1080,883,SU,1
10,1,0,1,1,1,10,10,2983,SU,1
10,2,0,0,0,1,10,20,6000,SU,1
10,3,0,1,1,1,10,30,2383,SU,1
10,4,0,0,0,1,10,40,3033,SU,1
10,5,0,1,1,1,10,50,2216,SU,1
10,6,0,1,1,1,10,60,1216,SU,1
10,7,0,0,1,0,0,60,2233,SU,0
10,8,0,1,0,0,0,60,1516,SU,0
10,9,0,0,0,1,10,70,2700,SU,1
10,10,0,0,0,1,10,80,2250,SU,1
10,11,0,1,1,1,10,90,1066,SU,1
10,12,0,1,0,0,0,90,1633,SU,0
10,13,0,1,1,1,10,100,3600,SU,1
10,14,0,0,0,1,10,110,1000,SU,1
10,15,0,0,1,0,0,110,2116,SU,0
10,16,0,1,1,1,10,120,1216,SU,1
10,17,0,1,1,1,10,130,2966,SU,1
10,18,0,0,1,0,0,130,1283,SU,0
10,19,0,0,0,1,10,140,966,SU,1
10,20,0,0,0,1,10,150,1066,SU,1
10,21,0,0,0,1,10,160,1016,SU,1
10,22,0,0,0,1,10,170,1233,SU,1
10,23,0,1,1,1,10,180,1850,SU,1
10,24,0,0,0,1,10,190,1650,SU,1
10,25,0,1,1,1,10,200,1183,SU,1
10,26,0,0,0,1,10,210,1583,SU,1
10,27,0,1,1,1,10,220,933,SU,1
10,28,0,1,1,1,10,230,1683,SU,1
10,29,0,0,1,0,0,230,1816,SU,0
10,30,0,0,0,1,10,240,1233,SU,1
10,31,0,0,1,0,0,240,2333,SU,0
10,32,0,0,0,1,10,250,2516,SU,1
10,33,0,0,0,1,10,260,1966,SU,1
10,34,0,1,1,1,10,270,1116,SU,1
10,35,0,1,1,1,10,280,1216,SU,1
10,36,0,0,0,1,10,290,1833,SU,1
10,37,0,1,1,1,10,300,1200,SU,1
10,38,0,1,1,1,10,310,883,SU,1
10,39,0,0,0,1,10,320,983,SU,1
10,40,0,1,1,1,10,330,1033,SU,1
10,41,0,1,1,1,10,340,766,SU,1
10,42,0,0,0,1,10,350,1800,SU,1
10,43,0,0,0,1,10,360,816,SU,1
10,44,0,0,1,0,0,360,1083,SU,0
10,45,0,0,0,1,10,370,716,SU,1
10,46,0,0,0,1,10,380,816,SU,1
10,47,0,0,0,1,10,390,833,SU,1
10,48,0,1,1,1,10,400,1016,SU,1
10,49,0,1,1,1,10,410,883,SU,1
10,50,0,0,0,1,10,420,1816,SU,1
10,51,0,1,1,1,10,430,1133,SU,1
10,52,0,0,0,1,10,440,1116,SU,1
10,53,0,0,0,1,10,450,983,SU,1
10,54,0,1,1,1,10,460,1050,SU,1
10,55,0,1,1,1,10,470,916,SU,1
10,56,0,1,1,1,10,480,750,SU,1
10,57,0,0,0,1,10,490,1333,SU,1
10,58,0,1,1,1,10,500,583,SU,1
10,59,0,0,0,1,10,510,3050,SU,1
10,60,0,1,1,1,10,520,733,SU,1
10,61,0,0,0,1,10,530,1066,SU,1
10,62,0,1,1,1,10,540,950,SU,1
10,63,0,0,0,1,10,550,1016,SU,1
10,64,0,0,0,1,10,560,666,SU,1
10,65,0,1,1,1,10,570,950,SU,1
10,66,0,1,1,1,10,580,816,SU,1
10,67,0,1,1,1,10,590,1050,SU,1
10,68,0,1,0,0,0,590,1366,SU,0
10,69,0,0,0,1,10,600,666,SU,1
10,70,0,1,0,0,0,600,1100,SU,0
10,71,0,0,0,1,10,610,733,SU,1
10,72,0,1,1,1,10,620,600,SU,1
10,73,0,1,1,1,10,630,850,SU,1
10,74,0,1,1,1,10,640,866,SU,1
10,75,0,0,0,1,10,650,683,SU,1
10,76,0,0,0,1,10,660,983,SU,1
10,77,0,1,1,1,10,670,800,SU,1
10,78,0,0,0,1,10,680,1283,SU,1
10,79,0,1,1,1,10,690,666,SU,1
10,80,0,1,1,1,10,700,866,SU,1
10,81,0,1,1,1,10,710,1066,SU,1
10,82,0,1,1,1,10,720,816,SU,1
10,83,0,0,0,1,10,730,766,SU,1
10,84,0,1,1,1,10,740,783,SU,1
10,85,0,0,1,0,0,740,1000,SU,0
10,86,0,0,0,1,10,750,833,SU,1
10,87,0,1,1,1,10,760,1050,SU,1
10,88,0,0,0,1,10,770,950,SU,1
10,89,0,0,0,1,10,780,783,SU,1
10,90,0,0,0,1,10,790,666,SU,1
10,91,0,1,1,1,10,800,933,SU,1
10,92,0,0,1,0,0,800,750,SU,0
10,93,0,1,1,1,10,810,900,SU,1
10,94,0,0,0,1,10,820,683,SU,1
10,95,0,1,0,0,0,820,983,SU,0
10,96,0,1,1,1,10,830,900,SU,1
10,97,0,1,1,1,10,840,750,SU,1
10,98,0,0,0,1,10,850,883,SU,1
10,99,0,1,1,1,10,860,783,SU,1
10,100,0,0,1,0,0,860,1066,SU,0
10,101,1,0,1,0,0,860,650,SU,0
10,102,1,1,0,0,0,860,2266,SU,0
10,103,1,0,0,1,10,870,1266,SU,1
10,104,1,0,0,1,10,880,2116,SU,1
10,105,1,1,1,1,10,890,1800,SU,1
10,106,1,1,0,0,0,890,1700,SU,0
10,107,1,1,0,0,0,890,2883,SU,0
10,108,1,0,1,0,0,890,1516,SU,0
10,109,1,0,0,1,10,900,3950,SU,1
10,110,1,1,0,0,0,900,966,SU,0
10,111,1,1,1,1,10,910,1133,SU,1
10,112,1,0,0,1,10,920,1083,SU,1
10,113,1,1,1,1,10,930,1183,SU,1
10,114,1,0,0,1,10,940,2000,SU,1
10,115,1,0,0,1,10,950,983,SU,1
10,116,1,1,1,1,10,960,2866,SU,1
10,117,1,1,1,1,10,970,3950,SU,1
10,118,1,0,1,0,0,970,1600,SU,0
10,119,1,1,1,1,10,980,2150,SU,1
10,120,1,0,1,0,0,980,1516,SU,0
10,121,1,0,0,1,10,990,1800,SU,1
10,122,1,0,0,1,10,1000,866,SU,1
10,123,1,0,0,1,10,1010,1083,SU,1
10,124,1,0,0,1,10,1020,816,SU,1
10,125,1,1,0,0,0,1020,733,SU,0
10,126,1,1,1,1,10,1030,1100,SU,1
10,127,1,1,1,1,10,1040,700,SU,1
10,128,1,1,1,1,10,1050,600,SU,1
10,129,1,0,1,0,0,1050,983,SU,0
10,130,1,0,1,0,0,1050,2633,SU,0
10,131,1,1,1,1,10,1060,1250,SU,1
10,132,1,0,0,1,10,1070,2233,SU,1
10,133,1,1,1,1,10,1080,666,SU,1
10,134,1,1,1,1,10,1090,1150,SU,1
10,135,1,1,1,1,10,1100,1383,SU,1
10,136,1,0,0,1,10,1110,716,SU,1
10,137,1,1,1,1,10,1120,900,SU,1
10,138,1,0,1,0,0,1120,1033,SU,0
10,139,1,1,0,0,0,1120,1250,SU,0
10,140,1,1,1,1,10,1130,2500,SU,1
10,141,1,1,1,1,10,1140,933,SU,1
10,142,1,1,1,1,10,1150,783,SU,1
10,143,1,0,0,1,10,1160,1350,SU,1
10,144,1,1,1,1,10,1170,816,SU,1
10,145,1,1,1,1,10,1180,1066,SU,1
10,146,1,1,1,1,10,1190,1050,SU,1
10,147,1,1,1,1,10,1200,1750,SU,1
10,148,1,1,1,1,10,1210,783,SU,1
10,149,1,0,0,1,10,1220,1066,SU,1
10,150,1,0,0,1,10,1230,900,SU,1
10,151,1,1,1,1,10,1240,983,SU,1
10,152,1,0,0,1,10,1250,1016,SU,1
10,153,1,0,0,1,10,1260,683,SU,1
10,154,1,1,1,1,10,1270,1016,SU,1
10,155,1,0,0,1,10,1280,1550,SU,1
10,156,1,1,1,1,10,1290,1050,SU,1
10,157,1,0,0,1,10,1300,1233,SU,1
10,158,1,1,0,0,0,1300,1066,SU,0
10,159,1,0,0,1,10,1310,1083,SU,1
10,160,1,0,0,1,10,1320,783,SU,1
10,161,1,0,0,1,10,1330,916,SU,1
10,162,1,0,0,1,10,1340,900,SU,1
10,163,1,1,1,1,10,1350,766,SU,1
10,164,1,0,0,1,10,1360,1216,SU,1
10,165,1,0,0,1,10,1370,733,SU,1
10,166,1,1,1,1,10,1380,883,SU,1
10,167,1,1,1,1,10,1390,1583,SU,1
10,168,1,0,0,1,10,1400,1133,SU,1
10,169,1,0,0,1,10,1410,950,SU,1
10,170,1,0,0,1,10,1420,1016,SU,1
10,171,1,0,1,0,0,1420,783,SU,0
10,172,1,1,1,1,10,1430,3050,SU,1
10,173,1,0,1,0,0,1430,1900,SU,0
10,174,1,0,0,1,10,1440,700,SU,1
10,175,1,0,0,1,10,1450,750,SU,1
10,176,1,0,0,1,10,1460,750,SU,1
10,177,1,1,1,1,10,1470,1300,SU,1
10,178,1,0,0,1,10,1480,633,SU,1
10,179,1,1,1,1,10,1490,700,SU,1
10,180,1,1,1,1,10,1500,1016,SU,1
10,181,1,1,1,1,10,1510,683,SU,1
10,182,1,0,1,0,0,1510,2783,SU,0
10,183,1,0,0,1,10,1520,583,SU,1
10,184,1,0,0,1,10,1530,3116,SU,1
10,185,1,1,0,0,0,1530,1566,SU,0
10,186,1,1,0,0,0,1530,1400,SU,0
10,187,1,1,0,0,0,1530,1016,SU,0
10,188,1,1,1,1,10,1540,1700,SU,1
10,189,1,0,1,0,0,1540,1066,SU,0
10,190,1,0,1,0,0,1540,866,SU,0
10,191,1,1,0,0,0,1540,1316,SU,0
10,192,1,1,0,0,0,1540,1633,SU,0
10,193,1,0,0,1,10,1550,2400,SU,1
10,194,1,0,0,1,10,1560,950,SU,1
10,195,1,1,0,0,0,1560,833,SU,0
10,196,1,1,1,1,10,1570,950,SU,1
10,197,1,1,1,1,10,1580,716,SU,1
10,198,1,0,0,1,10,1590,683,SU,1
10,199,1,1,0,0,0,1590,1016,SU,0
10,200,1,0,1,0,0,1590,883,SU,0
11,1,1,0,0,1,10,10,1033,SU,1
11,2,1,0,1,0,0,10,1016,SU,0
11,3,1,1,1,1,10,20,1150,SU,1
11,4,1,0,1,0,0,20,883,SU,0
11,5,1,0,1,0,0,20,950,SU,0
11,6,1,1,0,0,0,20,1000,SU,0
11,7,1,0,1,0,0,20,850,SU,0
11,8,1,0,0,1,10,30,1033,SU,1
11,9,1,1,0,0,0,30,1033,SU,0
11,10,1,1,0,0,0,30,1083,SU,0
11,11,1,1,1,1,10,40,900,SU,1
11,12,1,0,1,0,0,40,1166,SU,0
11,13,1,0,0,1,10,50,633,SU,1
11,14,1,0,0,1,10,60,650,SU,1
11,15,1,0,0,1,10,70,783,SU,1
11,16,1,0,0,1,10,80,700,SU,1
11,17,1,0,0,1,10,90,600,SU,1
11,18,1,1,1,1,10,100,1116,SU,1
11,19,1,0,0,1,10,110,883,SU,1
11,20,1,0,1,0,0,110,1200,SU,0
11,21,1,0,0,1,10,120,700,SU,1
11,22,1,1,1,1,10,130,783,SU,1
11,23,1,0,0,1,10,140,1083,SU,1
11,24,1,0,0,1,10,150,1033,SU,1
11,25,1,1,0,0,0,150,933,SU,0
11,26,1,1,1,1,10,160,883,SU,1
11,27,1,1,1,1,10,170,1467,SU,1
11,28,1,1,0,0,0,170,533,SU,0
11,29,1,0,0,1,10,180,866,SU,1
11,30,1,1,1,1,10,190,716,SU,1
11,31,1,0,1,0,0,190,1866,SU,0
11,32,1,1,1,1,10,200,1200,SU,1
11,33,1,1,0,0,0,200,650,SU,0
11,34,1,0,0,1,10,210,616,SU,1
11,35,1,1,0,0,0,210,1133,SU,0
11,36,1,0,0,1,10,220,833,SU,1
11,37,1,1,1,1,10,230,533,SU,1
11,38,1,0,0,1,10,240,650,SU,1
11,39,1,1,1,1,10,250,1083,SU,1
11,40,1,0,1,0,0,250,2450,SU,0
11,41,1,1,1,1,10,260,700,SU,1
11,42,1,1,1,1,10,270,933,SU,1
11,43,1,0,0,1,10,280,666,SU,1
11,44,1,0,1,0,0,280,1550,SU,0
11,45,1,1,1,1,10,290,866,SU,1
11,46,1,0,0,1,10,300,800,SU,1
11,47,1,1,0,0,0,300,750,SU,0
11,48,1,1,1,1,10,310,700,SU,1
11,49,1,1,1,1,10,320,716,SU,1
11,50,1,0,1,0,0,320,800,SU,0
11,51,1,1,0,0,0,320,650,SU,0
11,52,1,1,0,0,0,320,600,SU,0
11,53,1,0,0,1,10,330,733,SU,1
11,54,1,0,1,0,0,330,866,SU,0
11,55,1,1,1,1,10,340,716,SU,1
11,56,1,0,0,1,10,350,1050,SU,1
11,57,1,1,0,0,0,350,683,SU,0
11,58,1,1,1,1,10,360,600,SU,1
11,59,1,0,1,0,0,360,750,SU,0
11,60,1,1,1,1,10,370,966,SU,1
11,61,1,0,1,0,0,370,716,SU,0
11,62,1,1,1,1,10,380,683,SU,1
11,63,1,0,1,0,0,380,800,SU,0
11,64,1,0,1,0,0,380,700,SU,0
11,65,1,1,1,1,10,390,583,SU,1
11,66,1,1,1,1,10,400,1066,SU,1
11,67,1,0,0,1,10,410,683,SU,1
11,68,1,0,0,1,10,420,666,SU,1
11,69,1,0,0,1,10,430,716,SU,1
11,70,1,1,0,0,0,430,800,SU,0
11,71,1,1,1,1,10,440,550,SU,1
11,72,1,0,0,1,10,450,733,SU,1
11,73,1,1,1,1,10,460,783,SU,1
11,74,1,1,1,1,10,470,550,SU,1
11,75,1,0,1,0,0,470,950,SU,0
11,76,1,1,1,1,10,480,733,SU,1
11,77,1,0,0,1,10,490,633,SU,1
11,78,1,1,1,1,10,500,666,SU,1
11,79,1,1,1,1,10,510,616,SU,1
11,80,1,0,1,0,0,510,783,SU,0
11,81,1,0,0,1,10,520,533,SU,1
11,82,1,1,1,1,10,530,916,SU,1
11,83,1,1,0,0,0,530,733,SU,0
11,84,1,1,0,0,0,530,616,SU,0
11,85,1,0,1,0,0,530,666,SU,0
11,86,1,1,1,1,10,540,766,SU,1
11,87,1,1,0,0,0,540,533,SU,0
11,88,1,0,0,1,10,550,833,SU,1
11,89,1,1,0,0,0,550,966,SU,0
11,90,1,0,1,0,0,550,950,SU,0
11,91,1,1,1,1,10,560,2633,SU,1
11,92,1,1,1,1,10,570,933,SU,1
11,93,1,1,0,0,0,570,1416,SU,0
11,94,1,0,1,0,0,570,1616,SU,0
11,95,1,1,1,1,10,580,683,SU,1
11,96,1,0,1,0,0,580,683,SU,0
11,97,1,0,1,0,0,580,600,SU,0
11,98,1,0,0,1,10,590,900,SU,1
11,99,1,1,0,0,0,590,1400,SU,0
11,100,1,0,0,1,10,600,800,SU,1
11,101,0,1,0,0,0,600,716,SU,0
11,102,0,1,1,1,10,610,783,SU,1
11,103,0,0,1,0,0,610,750,SU,0
11,104,0,1,0,0,0,610,750,SU,0
11,105,0,0,1,0,0,610,1100,SU,0
11,106,0,0,0,1,10,620,700,SU,1
11,107,0,0,0,1,10,630,866,SU,1
11,108,0,0,0,1,10,640,633,SU,1
11,109,0,1,0,0,0,640,600,SU,0
11,110,0,0,0,1,10,650,933,SU,1
11,111,0,0,0,1,10,660,666,SU,1
11,112,0,1,0,0,0,660,633,SU,0
11,113,0,0,0,1,10,670,583,SU,1
11,114,0,0,1,0,0,670,817,SU,0
11,115,0,1,0,0,0,670,666,SU,0
11,116,0,0,0,1,10,680,616,SU,1
11,117,0,1,0,0,0,680,583,SU,0
11,118,0,0,0,1,10,690,516,SU,1
11,119,0,0,0,1,10,700,633,SU,1
11,120,0,1,1,1,10,710,950,SU,1
11,121,0,0,0,1,10,720,600,SU,1
11,122,0,0,0,1,10,730,1133,SU,1
11,123,0,1,1,1,10,740,750,SU,1
11,124,0,0,0,1,10,750,1033,SU,1
11,125,0,1,1,1,10,760,966,SU,1
11,126,0,0,1,0,0,760,766,SU,0
11,127,0,0,0,1,10,770,583,SU,1
11,128,0,0,0,1,10,780,583,SU,1
11,129,0,0,0,1,10,790,516,SU,1
11,130,0,1,1,1,10,800,566,SU,1
11,131,0,1,1,1,10,810,750,SU,1
11,132,0,1,0,0,0,810,566,SU,0
11,133,0,1,0,0,0,810,633,SU,0
11,134,0,1,1,1,10,820,883,SU,1
11,135,0,1,1,1,10,830,633,SU,1
11,136,0,0,0,1,10,840,816,SU,1
11,137,0,1,1,1,10,850,666,SU,1
11,138,0,0,0,1,10,860,766,SU,1
11,139,0,1,1,1,10,870,666,SU,1
11,140,0,1,0,0,0,870,733,SU,0
11,141,0,1,0,0,0,870,533,SU,0
11,142,0,1,1,1,10,880,600,SU,1
11,143,0,0,1,0,0,880,666,SU,0
11,144,0,1,0,0,0,880,766,SU,0
11,145,0,1,1,1,10,890,533,SU,1
11,146,0,1,1,1,10,900,766,SU,1
11,147,0,1,1,1,10,910,566,SU,1
11,148,0,1,1,1,10,920,883,SU,1
11,149,0,1,0,0,0,920,550,SU,0
11,150,0,1,0,0,0,920,717,SU,0
11,151,0,0,1,0,0,920,800,SU,0
11,152,0,0,0,1,10,930,617,SU,1
11,153,0,0,0,1,10,940,500,SU,1
11,154,0,1,0,0,0,940,733,SU,0
11,155,0,1,0,0,0,940,633,SU,0
11,156,0,0,1,0,0,940,566,SU,0
11,157,0,1,1,1,10,950,616,SU,1
11,158,0,0,0,1,10,960,683,SU,1
11,159,0,1,1,1,10,970,550,SU,1
11,160,0,1,0,0,0,970,1500,SU,0
11,161,0,0,1,0,0,970,550,SU,0
11,162,0,0,0,1,10,980,550,SU,1
11,163,0,1,0,0,0,980,633,SU,0
11,164,0,0,0,1,10,990,616,SU,1
11,165,0,0,0,1,10,1000,733,SU,1
11,166,0,0,0,1,10,1010,583,SU,1
11,167,0,1,0,0,0,1010,566,SU,0
11,168,0,1,1,1,10,1020,750,SU,1
11,169,0,1,1,1,10,1030,783,SU,1
11,170,0,0,1,0,0,1030,650,SU,0
11,171,0,1,0,0,0,1030,783,SU,0
11,172,0,1,1,1,10,1040,633,SU,1
11,173,0,1,1,1,10,1050,733,SU,1
11,174,0,0,1,0,0,1050,616,SU,0
11,175,0,0,0,1,10,1060,583,SU,1
11,176,0,1,0,0,0,1060,900,SU,0
11,177,0,0,0,1,10,1070,550,SU,1
11,178,0,0,1,0,0,1070,700,SU,0
11,179,0,1,1,1,10,1080,800,SU,1
11,180,0,1,1,1,10,1090,1033,SU,1
11,181,0,0,0,1,10,1100,583,SU,1
11,182,0,0,1,0,0,1100,816,SU,0
11,183,0,0,0,1,10,1110,666,SU,1
11,184,0,1,1,1,10,1120,1116,SU,1
11,185,0,1,1,1,10,1130,650,SU,1
11,186,0,0,0,1,10,1140,583,SU,1
11,187,0,0,1,0,0,1140,700,SU,0
11,188,0,0,1,0,0,1140,600,SU,0
11,189,0,0,0,1,10,1150,600,SU,1
11,190,0,0,0,1,10,1160,750,SU,1
11,191,0,1,1,1,10,1170,983,SU,1
11,192,0,0,0,1,10,1180,666,SU,1
11,193,0,1,1,1,10,1190,516,SU,1
11,194,0,0,0,1,10,1200,616,SU,1
11,195,0,0,1,0,0,1200,716,SU,0
11,196,0,1,1,1,10,1210,600,SU,1
11,197,0,1,1,1,10,1220,516,SU,1
11,198,0,0,1,0,0,1220,583,SU,0
11,199,0,0,0,1,10,1230,683,SU,1
11,200,0,1,0,0,0,1230,550,SU,0
12,1,1,1,1,1,10,10,13700,SU,1
12,2,1,1,0,0,0,10,9250,SU,0
12,3,1,0,1,0,0,10,13250,SU,0
12,4,1,0,0,1,10,20,23516,SU,1
12,5,1,1,1,1,10,30,9283,SU,1
12,6,1,1,0,0,0,30,5116,SU,0
12,7,1,1,0,0,0,30,7450,SU,0
12,8,1,1,0,0,0,30,4450,SU,0
12,9,1,1,1,1,10,40,1666,SU,1
12,10,1,1,1,1,10,50,1383,SU,1
12,11,1,1,1,1,10,60,3833,SU,1
12,12,1,0,1,0,0,60,1550,SU,0
12,13,1,0,0,1,10,70,1916,SU,1
12,14,1,0,0,1,10,80,1400,SU,1
12,15,1,1,0,0,0,80,633,SU,0
12,16,1,0,1,0,0,80,3283,SU,0
12,17,1,1,0,0,0,80,3250,SU,0
12,18,1,0,0,1,10,90,6816,SU,1
12,19,1,0,0,1,10,100,2383,SU,1
12,20,1,0,0,1,10,110,1850,SU,1
12,21,1,0,0,1,10,120,1250,SU,1
12,22,1,1,0,0,0,120,3450,SU,0
12,23,1,1,1,1,10,130,5300,SU,1
12,24,1,1,1,1,10,140,1966,SU,1
12,25,1,0,1,0,0,140,1500,SU,0
12,26,1,0,0,1,10,150,2416,SU,1
12,27,1,1,0,0,0,150,5716,SU,0
12,28,1,0,1,0,0,150,2050,SU,0
12,29,1,0,0,1,10,160,1833,SU,1
12,30,1,1,0,0,0,160,4833,SU,0
12,31,1,0,0,1,10,170,3533,SU,1
12,32,1,1,1,1,10,180,3183,SU,1
12,33,1,0,0,1,10,190,1750,SU,1
12,34,1,1,0,0,0,190,4033,SU,0
12,35,1,0,0,1,10,200,2950,SU,1
12,36,1,1,0,0,0,200,800,SU,0
12,37,1,1,0,0,0,200,3683,SU,0
12,38,1,1,0,0,0,200,4566,SU,0
12,39,1,1,0,0,0,200,4850,SU,0
12,40,1,1,1,1,10,210,7350,SU,1
12,41,1,1,1,1,10,220,1366,SU,1
12,42,1,0,1,0,0,220,900,SU,0
12,43,1,1,0,0,0,220,2016,SU,0
12,44,1,0,0,1,10,230,1350,SU,1
12,45,1,1,0,0,0,230,2650,SU,0
12,46,1,0,0,1,10,240,3283,SU,1
12,47,1,0,0,1,10,250,4366,SU,1
12,48,1,0,0,1,10,260,1916,SU,1
12,49,1,0,0,1,10,270,666,SU,1
12,50,1,1,0,0,0,270,1183,SU,0
12,51,1,1,0,0,0,270,3216,SU,0
12,52,1,1,0,0,0,270,1566,SU,0
12,53,1,1,0,0,0,270,750,SU,0
12,54,1,0,1,0,0,270,10816,SU,0
12,55,1,0,0,1,10,280,3800,SU,1
12,56,1,0,1,0,0,280,2216,SU,0
12,57,1,1,0,0,0,280,1583,SU,0
12,58,1,0,0,1,10,290,1800,SU,1
12,59,1,0,0,1,10,300,1466,SU,1
12,60,1,0,0,1,10,310,1250,SU,1
12,61,1,0,0,1,10,320,766,SU,1
12,62,1,0,0,1,10,330,1133,SU,1
12,63,1,1,0,0,0,330,716,SU,0
12,64,1,1,1,1,10,340,1716,SU,1
12,65,1,1,1,1,10,350,1466,SU,1
12,66,1,0,1,0,0,350,816,SU,0
12,67,1,0,0,1,10,360,1750,SU,1
12,68,1,1,0,0,0,360,1716,SU,0
12,69,1,0,0,1,10,370,1500,SU,1
12,70,1,0,0,1,10,380,2150,SU,1
12,71,1,0,0,1,10,390,2766,SU,1
12,72,1,1,0,0,0,390,1600,SU,0
12,73,1,0,1,0,0,390,3400,SU,0
12,74,1,1,0,0,0,390,3300,SU,0
12,75,1,1,0,0,0,390,2183,SU,0
12,76,1,1,0,0,0,390,7433,SU,0
12,77,1,0,1,0,0,390,2000,SU,0
12,78,1,0,1,0,0,390,1316,SU,0
12,79,1,1,0,0,0,390,1083,SU,0
12,80,1,0,0,1,10,400,2933,SU,1
12,81,1,0,0,1,10,410,1300,SU,1
12,82,1,0,0,1,10,420,816,SU,1
12,83,1,1,0,0,0,420,1200,SU,0
12,84,1,0,0,1,10,430,1350,SU,1
12,85,1,0,0,1,10,440,983,SU,1
12,86,1,1,0,0,0,440,1050,SU,0
12,87,1,1,1,1,10,450,2650,SU,1
12,88,1,1,1,1,10,460,1300,SU,1
12,89,1,1,1,1,10,470,11766,SU,1
12,90,1,1,1,1,10,480,1066,SU,1
12,91,1,1,1,1,10,490,933,SU,1
12,92,1,0,1,0,0,490,566,SU,0
12,93,1,0,0,1,10,500,666,SU,1
12,94,1,0,0,1,10,510,600,SU,1
12,95,1,0,0,1,10,520,650,SU,1
12,96,1,1,0,0,0,520,800,SU,0
12,97,1,0,1,0,0,520,850,SU,0
12,98,1,1,1,1,10,530,833,SU,1
12,99,1,0,1,0,0,530,766,SU,0
12,100,1,1,0,0,0,530,683,SU,0
12,101,0,1,1,1,10,540,2950,SU,1
12,102,0,0,1,0,0,540,900,SU,0
12,103,0,0,0,1,10,550,1400,SU,1
12,104,0,1,0,0,0,550,1283,SU,0
12,105,0,1,1,1,10,560,1233,SU,1
12,106,0,0,1,0,0,560,1033,SU,0
12,107,0,0,0,1,10,570,1933,SU,1
12,108,0,1,0,0,0,570,1533,SU,0
12,109,0,1,1,1,10,580,3650,SU,1
12,110,0,0,1,0,0,580,5300,SU,0
12,111,0,1,0,0,0,580,800,SU,0
12,112,0,0,0,1,10,590,1050,SU,1
12,113,0,1,0,0,0,590,833,SU,0
12,114,0,0,1,0,0,590,1250,SU,0
12,115,0,1,0,0,0,590,1250,SU,0
12,116,0,0,0,1,10,600,3133,SU,1
12,117,0,0,0,1,10,610,716,SU,1
12,118,0,1,0,0,0,610,550,SU,0
12,119,0,1,1,1,10,620,1216,SU,1
12,120,0,0,1,0,0,620,1850,SU,0
12,121,0,1,1,1,10,630,3266,SU,1
12,122,0,0,1,0,0,630,1516,SU,0
12,123,0,1,0,0,0,630,3800,SU,0
12,124,0,0,1,0,0,630,3550,SU,0
12,125,0,1,1,1,10,640,2466,SU,1
12,126,0,1,1,1,10,650,1216,SU,1
12,127,0,0,1,0,0,650,1083,SU,0
12,128,0,1,0,0,0,650,1466,SU,0
12,129,0,1,0,0,0,650,1900,SU,0
12,130,0,0,1,0,0,650,1567,SU,0
12,131,0,0,0,1,10,660,2533,SU,1
12,132,0,0,0,1,10,670,800,SU,1
12,133,0,1,0,0,0,670,666,SU,0
12,134,0,1,1,1,10,680,1216,SU,1
12,135,0,0,1,0,0,680,2750,SU,0
12,136,0,0,0,1,10,690,8350,SU,1
12,137,0,0,0,1,10,700,1466,SU,1
12,138,0,1,0,0,0,700,3466,SU,0
12,139,0,0,1,0,0,700,1600,SU,0
12,140,0,0,0,1,10,710,966,SU,1
12,141,0,1,0,0,0,710,683,SU,0
12,142,0,1,1,1,10,720,733,SU,1
12,143,0,0,1,0,0,720,600,SU,0
12,144,0,0,0,1,10,730,633,SU,1
12,145,0,0,0,1,10,740,700,SU,1
12,146,0,0,0,1,10,750,766,SU,1
12,147,0,1,0,0,0,750,616,SU,0
12,148,0,1,1,1,10,760,583,SU,1
12,149,0,1,1,1,10,770,550,SU,1
12,150,0,1,1,1,10,780,816,SU,1
12,151,0,1,1,1,10,790,617,SU,1
12,152,0,0,1,0,0,790,633,SU,0
12,153,0,0,0,1,10,800,566,SU,1
12,154,0,0,0,1,10,810,766,SU,1
12,155,0,1,0,0,0,810,766,SU,0
12,156,0,0,1,0,0,810,533,SU,0
12,157,0,0,0,1,10,820,583,SU,1
12,158,0,0,0,1,10,830,666,SU,1
12,159,0,0,0,1,10,840,566,SU,1
12,160,0,1,0,0,0,840,733,SU,0
12,161,0,1,1,1,10,850,700,SU,1
12,162,0,0,1,0,0,850,600,SU,0
12,163,0,1,0,0,0,850,550,SU,0
12,164,0,0,1,0,0,850,666,SU,0
12,165,0,0,0,1,10,860,566,SU,1
12,166,0,0,0,1,10,870,533,SU,1
12,167,0,1,0,0,0,870,716,SU,0
12,168,0,1,1,1,10,880,816,SU,1
12,169,0,1,1,1,10,890,650,SU,1
12,170,0,0,1,0,0,890,700,SU,0
12,171,0,1,0,0,0,890,716,SU,0
12,172,0,0,1,0,0,890,633,SU,0
12,173,0,1,0,0,0,890,600,SU,0
12,174,0,0,1,0,0,890,583,SU,0
12,175,0,1,0,0,0,890,650,SU,0
12,176,0,0,0,1,10,900,3316,SU,1
12,177,0,0,0,1,10,910,683,SU,1
12,178,0,1,0,0,0,910,750,SU,0
12,179,0,1,1,1,10,920,650,SU,1
12,180,0,1,1,1,10,930,833,SU,1
12,181,0,0,1,0,0,930,666,SU,0
12,182,0,0,0,1,10,940,650,SU,1
12,183,0,0,0,1,10,950,666,SU,1
12,184,0,0,0,1,10,960,616,SU,1
12,185,0,0,0,1,10,970,633,SU,1
12,186,0,0,0,1,10,980,633,SU,1
12,187,0,0,0,1,10,990,1216,SU,1
12,188,0,1,0,0,0,990,683,SU,0
12,189,0,1,1,1,10,1000,766,SU,1
12,190,0,1,1,1,10,1010,1933,SU,1
12,191,0,1,1,1,10,1020,1016,SU,1
12,192,0,1,1,1,10,1030,1566,SU,1
12,193,0,1,1,1,10,1040,533,SU,1
12,194,0,1,1,1,10,1050,500,SU,1
12,195,0,0,1,0,0,1050,683,SU,0
12,196,0,1,0,0,0,1050,400,SU,0
12,197,0,0,0,1,10,1060,600,SU,1
12,198,0,1,0,0,0,1060,666,SU,0
12,199,0,1,1,1,10,1070,566,SU,1
12,200,0,1,1,1,10,1080,666,SU,1
13,1,1,0,1,0,0,0,1283,SU,0
13,2,1,0,0,1,10,10,1050,SU,1
13,3,1,0,0,1,10,20,733,SU,1
13,4,1,1,0,0,0,20,700,SU,0
13,5,1,0,0,1,10,30,750,SU,1
13,6,1,1,0,0,0,30,583,SU,0
13,7,1,0,0,1,10,40,516,SU,1
13,8,1,1,0,0,0,40,783,SU,0
13,9,1,0,0,1,10,50,833,SU,1
13,10,1,1,0,0,0,50,1700,SU,0
13,11,1,1,0,0,0,50,783,SU,0
13,12,1,0,0,1,10,60,550,SU,1
13,13,1,0,0,1,10,70,1116,SU,1
13,14,1,1,1,1,10,80,966,SU,1
13,15,1,0,0,1,10,90,816,SU,1
13,16,1,1,1,1,10,100,1033,SU,1
13,17,1,1,0,0,0,100,1050,SU,0
13,18,1,1,0,0,0,100,600,SU,0
13,19,1,1,1,1,10,110,1116,SU,1
13,20,1,1,1,1,10,120,550,SU,1
13,21,1,0,1,0,0,120,817,SU,0
13,22,1,1,0,0,0,120,650,SU,0
13,23,1,1,0,0,0,120,933,SU,0
13,24,1,1,0,0,0,120,733,SU,0
13,25,1,1,1,1,10,130,800,SU,1
13,26,1,0,1,0,0,130,883,SU,0
13,27,1,1,0,0,0,130,850,SU,0
13,28,1,1,1,1,10,140,983,SU,1
13,29,1,0,1,0,0,140,800,SU,0
13,30,1,1,1,1,10,150,800,SU,1
13,31,1,1,0,0,0,150,700,SU,0
13,32,1,1,0,0,0,150,1150,SU,0
13,33,1,1,1,1,10,160,1166,SU,1
13,34,1,0,1,0,0,160,566,SU,0
13,35,1,1,1,1,10,170,1300,SU,1
13,36,1,1,0,0,0,170,916,SU,0
13,37,1,0,1,0,0,170,2033,SU,0
13,38,1,0,1,0,0,170,950,SU,0
13,39,1,1,0,0,0,170,1066,SU,0
13,40,1,1,0,0,0,170,850,SU,0
13,41,1,0,1,0,0,170,650,SU,0
13,42,1,0,1,0,0,170,1816,SU,0
13,43,1,1,1,1,10,180,2133,SU,1
13,44,1,0,0,1,10,190,666,SU,1
13,45,1,0,0,1,10,200,2133,SU,1
13,46,1,0,0,1,10,210,2016,SU,1
13,47,1,0,0,1,10,220,1083,SU,1
13,48,1,1,0,0,0,220,900,SU,0
13,49,1,1,0,0,0,220,916,SU,0
13,50,1,0,1,0,0,220,1000,SU,0
13,51,1,0,1,0,0,220,1266,SU,0
13,52,1,0,0,1,10,230,550,SU,1
13,53,1,0,0,1,10,240,600,SU,1
13,54,1,0,0,1,10,250,716,SU,1
13,55,1,0,0,1,10,260,566,SU,1
13,56,1,0,0,1,10,270,1183,SU,1
13,57,1,0,0,1,10,280,583,SU,1
13,58,1,1,0,0,0,280,1450,SU,0
13,59,1,1,1,1,10,290,916,SU,1
13,60,1,1,1,1,10,300,1416,SU,1
13,61,1,1,1,1,10,310,1100,SU,1
13,62,1,1,0,0,0,310,616,SU,0
13,63,1,1,1,1,10,320,716,SU,1
13,64,1,0,1,0,0,320,483,SU,0
13,65,1,0,1,0,0,320,950,SU,0
13,66,1,0,0,1,10,330,500,SU,1
13,67,1,0,0,1,10,340,466,SU,1
13,68,1,0,0,1,10,350,533,SU,1
13,69,1,1,0,0,0,350,600,SU,0
13,70,1,0,0,1,10,360,783,SU,1
13,71,1,0,1,0,0,360,950,SU,0
13,72,1,1,1,1,10,370,1683,SU,1
13,73,1,1,0,0,0,370,666,SU,0
13,74,1,0,1,0,0,370,683,SU,0
13,75,1,0,1,0,0,370,3033,SU,0
13,76,1,1,0,0,0,370,550,SU,0
13,77,1,0,0,1,10,380,566,SU,1
13,78,1,1,0,0,0,380,666,SU,0
13,79,1,0,1,0,0,380,833,SU,0
13,80,1,0,0,1,10,390,983,SU,1
13,81,1,1,1,1,10,400,800,SU,1
13,82,1,0,1,0,0,400,816,SU,0
13,83,1,1,1,1,10,410,933,SU,1
13,84,1,0,1,0,0,410,816,SU,0
13,85,1,1,0,0,0,410,1116,SU,0
13,86,1,1,1,1,10,420,1183,SU,1
13,87,1,1,1,1,10,430,816,SU,1
13,88,1,0,1,0,0,430,616,SU,0
13,89,1,0,1,0,0,430,1033,SU,0
13,90,1,0,0,1,10,440,1266,SU,1
13,91,1,1,1,1,10,450,1083,SU,1
13,92,1,0,1,0,0,450,650,SU,0
13,93,1,1,0,0,0,450,733,SU,0
13,94,1,1,1,1,10,460,933,SU,1
13,95,1,1,0,0,0,460,783,SU,0
13,96,1,1,0,0,0,460,1200,SU,0
13,97,1,0,1,0,0,460,750,SU,0
13,98,1,0,0,1,10,470,883,SU,1
13,99,1,1,0,0,0,470,2683,SU,0
13,100,1,0,0,1,10,480,1200,SU,1
13,101,0,1,0,0,0,480,783,SU,0
13,102,0,1,0,0,0,480,583,SU,0
13,103,0,0,1,0,0,480,733,SU,0
13,104,0,1,0,0,0,480,783,SU,0
13,105,0,1,1,1,10,490,966,SU,1
13,106,0,0,1,0,0,490,566,SU,0
13,107,0,1,0,0,0,490,950,SU,0
13,108,0,0,1,0,0,490,983,SU,0
13,109,0,0,0,1,10,500,650,SU,1
13,110,0,1,0,0,0,500,550,SU,0
13,111,0,1,0,0,0,500,700,SU,0
13,112,0,0,1,0,0,500,650,SU,0
13,113,0,0,1,0,0,500,1000,SU,0
13,114,0,1,0,0,0,500,600,SU,0
13,115,0,1,0,0,0,500,1216,SU,0
13,116,0,0,0,1,10,510,1016,SU,1
13,117,0,0,1,0,0,510,666,SU,0
13,118,0,0,0,1,10,520,600,SU,1
13,119,0,1,0,0,0,520,566,SU,0
13,120,0,0,1,0,0,520,683,SU,0
13,121,0,1,1,1,10,530,800,SU,1
13,122,0,1,0,0,0,530,666,SU,0
13,123,0,0,1,0,0,530,1200,SU,0
13,124,0,0,0,1,10,540,833,SU,1
13,125,0,0,0,1,10,550,583,SU,1
13,126,0,1,0,0,0,550,566,SU,0
13,127,0,0,1,0,0,550,666,SU,0
13,128,0,1,0,0,0,550,650,SU,0
13,129,0,0,1,0,0,550,883,SU,0
13,130,0,1,0,0,0,550,2133,SU,0
13,131,0,0,1,0,0,550,983,SU,0
13,132,0,0,0,1,10,560,1366,SU,1
13,133,0,0,0,1,10,570,533,SU,1
13,134,0,1,1,1,10,580,816,SU,1
13,135,0,1,0,0,0,580,750,SU,0
13,136,0,1,0,0,0,580,566,SU,0
13,137,0,1,0,0,0,580,683,SU,0
13,138,0,1,1,1,10,590,650,SU,1
13,139,0,1,1,1,10,600,550,SU,1
13,140,0,0,1,0,0,600,666,SU,0
13,141,0,0,0,1,10,610,566,SU,1
13,142,0,0,0,1,10,620,500,SU,1
13,143,0,1,0,0,0,620,550,SU,0
13,144,0,1,0,0,0,620,1050,SU,0
13,145,0,1,1,1,10,630,1100,SU,1
13,146,0,0,1,0,0,630,666,SU,0
13,147,0,0,0,1,10,640,866,SU,1
13,148,0,1,1,1,10,650,650,SU,1
13,149,0,0,0,1,10,660,900,SU,1
13,150,0,0,0,1,10,670,1066,SU,1
13,151,0,1,1,1,10,680,1066,SU,1
13,152,0,1,1,1,10,690,2650,SU,1
13,153,0,0,0,1,10,700,1200,SU,1
13,154,0,1,1,1,10,710,1050,SU,1
13,155,0,0,0,1,10,720,666,SU,1
13,156,0,1,0,0,0,720,983,SU,0
13,157,0,0,0,1,10,730,733,SU,1
13,158,0,0,0,1,10,740,633,SU,1
13,159,0,1,0,0,0,740,533,SU,0
13,160,0,1,0,0,0,740,1033,SU,0
13,161,0,1,0,0,0,740,883,SU,0
13,162,0,1,1,1,10,750,916,SU,1
13,163,0,1,1,1,10,760,533,SU,1
13,164,0,0,1,0,0,760,716,SU,0
13,165,0,0,1,0,0,760,800,SU,0
13,166,0,0,0,1,10,770,566,SU,1
13,167,0,0,0,1,10,780,766,SU,1
13,168,0,1,0,0,0,780,483,SU,0
13,169,0,0,1,0,0,780,650,SU,0
13,170,0,0,0,1,10,790,650,SU,1
13,171,0,0,0,1,10,800,600,SU,1
13,172,0,1,0,0,0,800,550,SU,0
13,173,0,0,0,1,10,810,1300,SU,1
13,174,0,1,1,1,10,820,750,SU,1
13,175,0,1,1,1,10,830,500,SU,1
13,176,0,1,0,0,0,830,450,SU,0
13,177,0,0,1,0,0,830,633,SU,0
13,178,0,1,0,0,0,830,633,SU,0
13,179,0,0,1,0,0,830,533,SU,0
13,180,0,1,0,0,0,830,950,SU,0
13,181,0,0,1,0,0,830,800,SU,0
13,182,0,0,0,1,10,840,933,SU,1
13,183,0,1,0,0,0,840,533,SU,0
13,184,0,1,0,0,0,840,1000,SU,0
13,185,0,1,1,1,10,850,616,SU,1
13,186,0,0,1,0,0,850,616,SU,0
13,187,0,1,1,1,10,860,600,SU,1
13,188,0,1,0,0,0,860,550,SU,0
13,189,0,1,1,1,10,870,966,SU,1
13,190,0,1,1,1,10,880,666,SU,1
13,191,0,1,0,0,0,880,766,SU,0
13,192,0,0,0,1,10,890,783,SU,1
13,193,0,0,1,0,0,890,1016,SU,0
13,194,0,0,0,1,10,900,683,SU,1
13,195,0,0,0,1,10,910,750,SU,1
13,196,0,0,0,1,10,920,483,SU,1
13,197,0,0,0,1,10,930,533,SU,1
13,198,0,1,0,0,0,930,783,SU,0
13,199,0,0,1,0,0,930,550,SU,0
13,200,0,0,0,1,10,940,1266,SU,1
14,1,1,0,0,1,10,10,1485,SU,1
14,2,1,0,0,1,10,20,1633,SU,1
14,3,1,1,0,0,0,20,1383,SU,0
14,4,1,0,0,1,10,30,699,SU,1
14,5,1,1,0,0,0,30,614,SU,0
14,6,1,0,1,0,0,30,1802,SU,0
14,7,1,1,1,1,10,40,1916,SU,1
14,8,1,1,0,0,0,40,1233,SU,0
14,9,1,0,0,1,10,50,2133,SU,1
14,10,1,0,0,1,10,60,850,SU,1
14,11,1,1,0,0,0,60,1866,SU,0
14,12,1,0,0,1,10,70,700,SU,1
14,13,1,0,1,0,0,70,2067,SU,0
14,14,1,1,1,1,10,80,800,SU,1
14,15,1,0,0,1,10,90,1133,SU,1
14,16,1,0,0,1,10,100,1333,SU,1
14,17,1,0,0,1,10,110,1900,SU,1
14,18,1,1,1,1,10,120,1517,SU,1
14,19,1,0,0,1,10,130,1366,SU,1
14,20,1,0,1,0,0,130,1450,SU,0
14,21,1,1,1,1,10,140,583,SU,1
14,22,1,1,1,1,10,150,1033,SU,1
14,23,1,1,1,1,10,160,533,SU,1
14,24,1,0,0,1,10,170,783,SU,1
14,25,1,0,0,1,10,180,850,SU,1
14,26,1,0,1,0,0,180,717,SU,0
14,27,1,1,0,0,0,180,800,SU,0
14,28,1,1,0,0,0,180,683,SU,0
14,29,1,1,1,1,10,190,916,SU,1
14,30,1,1,0,0,0,190,1300,SU,0
14,31,1,1,1,1,10,200,1366,SU,1
14,32,1,0,1,0,0,200,2550,SU,0
14,33,1,0,0,1,10,210,816,SU,1
14,34,1,1,1,1,10,220,750,SU,1
14,35,1,0,1,0,0,220,866,SU,0
14,36,1,0,0,1,10,230,950,SU,1
14,37,1,0,0,1,10,240,783,SU,1
14,38,1,0,1,0,0,240,2516,SU,0
14,39,1,1,1,1,10,250,983,SU,1
14,40,1,0,0,1,10,260,666,SU,1
14,41,1,1,1,1,10,270,633,SU,1
14,42,1,0,0,1,10,280,483,SU,1
14,43,1,0,1,0,0,280,633,SU,0
14,44,1,0,1,0,0,280,2666,SU,0
14,45,1,0,0,1,10,290,666,SU,1
14,46,1,0,0,1,10,300,1333,SU,1
14,47,1,0,0,1,10,310,1183,SU,1
14,48,1,0,0,1,10,320,850,SU,1
14,49,1,1,0,0,0,320,783,SU,0
14,50,1,1,0,0,0,320,683,SU,0
14,51,1,1,0,0,0,320,916,SU,0
14,52,1,1,0,0,0,320,716,SU,0
14,53,1,0,0,1,10,330,466,SU,1
14,54,1,1,0,0,0,330,633,SU,0
14,55,1,1,0,0,0,330,483,SU,0
14,56,1,1,1,1,10,340,1100,SU,1
14,57,1,1,1,1,10,350,1016,SU,1
14,58,1,0,1,0,0,350,833,SU,0
14,59,1,0,0,1,10,360,616,SU,1
14,60,1,1,1,1,10,370,733,SU,1
14,61,1,0,1,0,0,370,1750,SU,0
14,62,1,1,1,1,10,380,733,SU,1
14,63,1,0,0,1,10,390,1016,SU,1
14,64,1,0,0,1,10,400,850,SU,1
14,65,1,0,1,0,0,400,833,SU,0
14,66,1,1,1,1,10,410,650,SU,1
14,67,1,0,1,0,0,410,1633,SU,0
14,68,1,1,0,0,0,410,733,SU,0
14,69,1,1,1,1,10,420,1300,SU,1
14,70,1,0,0,1,10,430,766,SU,1
14,71,1,1,1,1,10,440,883,SU,1
14,72,1,0,0,1,10,450,3666,SU,1
14,73,1,0,0,1,10,460,1633,SU,1
14,74,1,0,1,0,0,460,866,SU,0
14,75,1,1,1,1,10,470,1033,SU,1
14,76,1,0,1,0,0,470,1166,SU,0
14,77,1,1,1,1,10,480,583,SU,1
14,78,1,1,1,1,10,490,800,SU,1
14,79,1,0,0,1,10,500,1833,SU,1
14,80,1,0,0,1,10,510,600,SU,1
14,81,1,1,1,1,10,520,633,SU,1
14,82,1,0,0,1,10,530,1383,SU,1
14,83,1,1,1,1,10,540,966,SU,1
14,84,1,1,1,1,10,550,666,SU,1
14,85,1,0,1,0,0,550,683,SU,0
14,86,1,1,1,1,10,560,1283,SU,1
14,87,1,0,1,0,0,560,1083,SU,0
14,88,1,1,1,1,10,570,750,SU,1
14,89,1,0,1,0,0,570,883,SU,0
14,90,1,1,1,1,10,580,3933,SU,1
14,91,1,1,1,1,10,590,1100,SU,1
14,92,1,1,1,1,10,600,2450,SU,1
14,93,1,1,1,1,10,610,766,SU,1
14,94,1,1,1,1,10,620,833,SU,1
14,95,1,1,1,1,10,630,750,SU,1
14,96,1,1,0,0,0,630,866,SU,0
14,97,1,1,1,1,10,640,1333,SU,1
14,98,1,0,0,1,10,650,833,SU,1
14,99,1,1,1,1,10,660,633,SU,1
14,100,1,1,1,1,10,670,633,SU,1
14,101,0,0,1,0,0,670,733,SU,0
14,102,0,0,0,1,10,680,4566,SU,1
14,103,0,0,0,1,10,690,783,SU,1
14,104,0,1,1,1,10,700,3166,SU,1
14,105,0,0,0,1,10,710,616,SU,1
14,106,0,1,1,1,10,720,583,SU,1
14,107,0,1,1,1,10,730,1183,SU,1
14,108,0,0,0,1,10,740,683,SU,1
14,109,0,0,0,1,10,750,850,SU,1
14,110,0,1,1,1,10,760,650,SU,1
14,111,0,0,0,1,10,770,850,SU,1
14,112,0,1,1,1,10,780,966,SU,1
14,113,0,0,0,1,10,790,683,SU,1
14,114,0,1,1,1,10,800,983,SU,1
14,115,0,1,1,1,10,810,1266,SU,1
14,116,0,0,0,1,10,820,866,SU,1
14,117,0,0,0,1,10,830,916,SU,1
14,118,0,1,1,1,10,840,866,SU,1
14,119,0,1,1,1,10,850,900,SU,1
14,120,0,0,0,1,10,860,750,SU,1
14,121,0,0,1,0,0,860,2433,SU,0
14,122,0,1,1,1,10,870,700,SU,1
14,123,0,1,1,1,10,880,2000,SU,1
14,124,0,0,0,1,10,890,767,SU,1
14,125,0,1,1,1,10,900,766,SU,1
14,126,0,0,0,1,10,910,1016,SU,1
14,127,0,1,0,0,0,910,2616,SU,0
14,128,0,1,1,1,10,920,1000,SU,1
14,129,0,1,1,1,10,930,966,SU,1
14,130,0,0,0,1,10,940,1233,SU,1
14,131,0,1,1,1,10,950,2966,SU,1
14,132,0,0,0,1,10,960,2050,SU,1
14,133,0,1,0,0,0,960,733,SU,0
14,134,0,0,0,1,10,970,583,SU,1
14,135,0,0,0,1,10,980,600,SU,1
14,136,0,1,0,0,0,980,566,SU,0
14,137,0,1,0,0,0,980,1250,SU,0
14,138,0,0,0,1,10,990,500,SU,1
14,139,0,1,1,1,10,1000,933,SU,1
14,140,0,1,0,0,0,1000,783,SU,0
14,141,0,1,1,1,10,1010,1050,SU,1
14,142,0,0,0,1,10,1020,1133,SU,1
14,143,0,1,0,0,0,1020,683,SU,0
14,144,0,0,0,1,10,1030,916,SU,1
14,145,0,1,0,0,0,1030,783,SU,0
14,146,0,1,0,0,0,1030,700,SU,0
14,147,0,0,0,1,10,1040,650,SU,1
14,148,0,0,1,0,0,1040,1200,SU,0
14,149,0,0,0,1,10,1050,733,SU,1
14,150,0,0,0,1,10,1060,833,SU,1
14,151,0,1,1,1,10,1070,1266,SU,1
14,152,0,1,0,0,0,1070,733,SU,0
14,153,0,1,0,0,0,1070,1900,SU,0
14,154,0,0,1,0,0,1070,2783,SU,0
14,155,0,1,1,1,10,1080,1466,SU,1
14,156,0,0,1,0,0,1080,1616,SU,0
14,157,0,0,0,1,10,1090,1400,SU,1
14,158,0,0,0,1,10,1100,1083,SU,1
14,159,0,0,1,0,0,1100,2133,SU,0
14,160,0,1,1,1,10,1110,766,SU,1
14,161,0,0,0,1,10,1120,700,SU,1
14,162,0,0,0,1,10,1130,966,SU,1
14,163,0,0,0,1,10,1140,1016,SU,1
14,164,0,0,0,1,10,1150,733,SU,1
14,165,0,0,0,1,10,1160,1266,SU,1
14,166,0,0,0,1,10,1170,766,SU,1
14,167,0,1,1,1,10,1180,7000,SU,1
14,168,0,1,1,1,10,1190,800,SU,1
14,169,0,1,1,1,10,1200,983,SU,1
14,170,0,0,1,0,0,1200,666,SU,0
14,171,0,1,1,1,10,1210,650,SU,1
14,172,0,1,1,1,10,1220,683,SU,1
14,173,0,1,1,1,10,1230,633,SU,1
14,174,0,0,1,0,0,1230,900,SU,0
14,175,0,1,1,1,10,1240,1266,SU,1
14,176,0,1,1,1,10,1250,750,SU,1
14,177,0,1,1,1,10,1260,833,SU,1
14,178,0,1,1,1,10,1270,950,SU,1
14,179,0,0,0,1,10,1280,1183,SU,1
14,180,0,1,1,1,10,1290,1183,SU,1
14,181,0,0,0,1,10,1300,916,SU,1
14,182,0,1,1,1,10,1310,1483,SU,1
14,183,0,1,0,0,0,1310,916,SU,0
14,184,0,0,1,0,0,1310,1800,SU,0
14,185,0,1,1,1,10,1320,1550,SU,1
14,186,0,0,0,1,10,1330,766,SU,1
14,187,0,0,0,1,10,1340,633,SU,1
14,188,0,1,0,0,0,1340,633,SU,0
14,189,0,1,1,1,10,1350,1066,SU,1
14,190,0,1,1,1,10,1360,883,SU,1
14,191,0,0,0,1,10,1370,766,SU,1
14,192,0,1,0,0,0,1370,550,SU,0
14,193,0,0,0,1,10,1380,583,SU,1
14,194,0,1,1,1,10,1390,650,SU,1
14,195,0,0,1,0,0,1390,816,SU,0
14,196,0,0,0,1,10,1400,733,SU,1
14,197,0,1,1,1,10,1410,1233,SU,1
14,198,0,0,0,1,10,1420,1716,SU,1
14,199,0,0,0,1,10,1430,2683,SU,1
14,200,0,0,0,1,10,1440,866,SU,1
15,1,0,0,1,0,0,0,2733,SU,0
15,2,0,1,0,0,0,0,3933,SU,0
15,3,0,0,0,1,10,10,3000,SU,1
15,4,0,1,0,0,0,10,1133,SU,0
15,5,0,0,1,0,0,10,2583,SU,0
15,6,0,0,0,1,10,20,2183,SU,1
15,7,0,1,1,1,10,30,1633,SU,1
15,8,0,0,0,1,10,40,1800,SU,1
15,9,0,1,1,1,10,50,1233,SU,1
15,10,0,1,1,1,10,60,1216,SU,1
15,11,0,1,0,0,0,60,1450,SU,0
15,12,0,0,1,0,0,60,1566,SU,0
15,13,0,0,1,0,0,60,3350,SU,0
15,14,0,1,0,0,0,60,1766,SU,0
15,15,0,0,1,0,0,60,3950,SU,0
15,16,0,0,0,1,10,70,2100,SU,1
15,17,0,0,1,0,0,70,2366,SU,0
15,18,0,0,0,1,10,80,3433,SU,1
15,19,0,0,1,0,0,80,1250,SU,0
15,20,0,1,0,0,0,80,1433,SU,0
15,21,0,0,0,1,10,90,1483,SU,1
15,22,0,1,1,1,10,100,1250,SU,1
15,23,0,0,0,1,10,110,1483,SU,1
15,24,0,1,0,0,0,110,1666,SU,0
15,25,0,1,0,0,0,110,2466,SU,0
15,26,0,0,1,0,0,110,3166,SU,0
15,27,0,1,0,0,0,110,1683,SU,0
15,28,0,1,1,1,10,120,850,SU,1
15,29,0,0,0,1,10,130,750,SU,1
15,30,0,1,1,1,10,140,833,SU,1
15,31,0,0,0,1,10,150,1500,SU,1
15,32,0,0,1,0,0,150,833,SU,0
15,33,0,1,0,0,0,150,750,SU,0
15,34,0,1,1,1,10,160,1300,SU,1
15,35,0,0,0,1,10,170,1100,SU,1
15,36,0,0,1,0,0,170,2000,SU,0
15,37,0,0,0,1,10,180,1366,SU,1
15,38,0,0,0,1,10,190,1016,SU,1
15,39,0,0,0,1,10,200,900,SU,1
15,40,0,1,0,0,0,200,617,SU,0
15,41,0,1,0,0,0,200,1783,SU,0
15,42,0,1,1,1,10,210,1433,SU,1
15,43,0,0,0,1,10,220,1233,SU,1
15,44,0,1,0,0,0,220,1066,SU,0
15,45,0,0,0,1,10,230,1250,SU,1
15,46,0,1,1,1,10,240,1216,SU,1
15,47,0,0,1,0,0,240,783,SU,0
15,48,0,1,1,1,10,250,1216,SU,1
15,49,0,0,0,1,10,260,1583,SU,1
15,50,0,0,0,1,10,270,1000,SU,1
15,51,0,1,0,0,0,270,1250,SU,0
15,52,0,1,1,1,10,280,1150,SU,1
15,53,0,0,1,0,0,280,1633,SU,0
15,54,0,0,1,0,0,280,950,SU,0
15,55,0,0,1,0,0,280,1250,SU,0
15,56,0,1,0,0,0,280,1733,SU,0
15,57,0,0,1,0,0,280,1533,SU,0
15,58,0,0,1,0,0,280,2266,SU,0
15,59,0,1,0,0,0,280,1916,SU,0
15,60,0,1,0,0,0,280,867,SU,0
15,61,0,1,1,1,10,290,1016,SU,1
15,62,0,1,1,1,10,300,933,SU,1
15,63,0,1,1,1,10,310,2416,SU,1
15,64,0,0,1,0,0,310,1316,SU,0
15,65,0,0,0,1,10,320,1150,SU,1
15,66,0,1,0,0,0,320,1133,SU,0
15,67,0,0,0,1,10,330,1433,SU,1
15,68,0,1,1,1,10,340,900,SU,1
15,69,0,1,1,1,10,350,1416,SU,1
15,70,0,1,0,0,0,350,1233,SU,0
15,71,0,0,0,1,10,360,2350,SU,1
15,72,0,0,1,0,0,360,666,SU,0
15,73,0,1,0,0,0,360,850,SU,0
15,74,0,1,0,0,0,360,900,SU,0
15,75,0,0,1,0,0,360,1983,SU,0
15,76,0,0,0,1,10,370,1650,SU,1
15,77,0,1,1,1,10,380,1333,SU,1
15,78,0,1,1,1,10,390,983,SU,1
15,79,0,1,1,1,10,400,916,SU,1
15,80,0,1,1,1,10,410,750,SU,1
15,81,0,0,1,0,0,410,966,SU,0
15,82,0,1,1,1,10,420,950,SU,1
15,83,0,0,1,0,0,420,1000,SU,0
15,84,0,1,1,1,10,430,1016,SU,1
15,85,0,1,1,1,10,440,916,SU,1
15,86,0,1,1,1,10,450,833,SU,1
15,87,0,1,1,1,10,460,1550,SU,1
15,88,0,0,0,1,10,470,716,SU,1
15,89,0,0,0,1,10,480,883,SU,1
15,90,0,1,1,1,10,490,1033,SU,1
15,91,0,0,1,0,0,490,1250,SU,0
15,92,0,0,0,1,10,500,666,SU,1
15,93,0,0,0,1,10,510,1366,SU,1
15,94,0,0,1,0,0,510,2733,SU,0
15,95,0,1,1,1,10,520,900,SU,1
15,96,0,0,0,1,10,530,800,SU,1
15,97,0,1,1,1,10,540,1033,SU,1
15,98,0,0,0,1,10,550,866,SU,1
15,99,0,1,1,1,10,560,1116,SU,1
15,100,0,1,1,1,10,570,666,SU,1
15,101,1,0,0,1,10,580,833,SU,1
15,102,1,0,0,1,10,590,866,SU,1
15,103,1,0,1,0,0,590,766,SU,0
15,104,1,1,0,0,0,590,649,SU,0
15,105,1,0,1,0,0,590,2266,SU,0
15,106,1,1,0,0,0,590,1350,SU,0
15,107,1,1,1,1,10,600,1850,SU,1
15,108,1,1,1,1,10,610,1750,SU,1
15,109,1,1,1,1,10,620,1900,SU,1
15,110,1,1,1,1,10,630,1183,SU,1
15,111,1,1,1,1,10,640,2050,SU,1
15,112,1,0,1,0,0,640,883,SU,0
15,113,1,0,0,1,10,650,683,SU,1
15,114,1,1,0,0,0,650,733,SU,0
15,115,1,0,0,1,10,660,1816,SU,1
15,116,1,0,0,1,10,670,1067,SU,1
15,117,1,0,0,1,10,680,1866,SU,1
15,118,1,0,0,1,10,690,1000,SU,1
15,119,1,0,0,1,10,700,1250,SU,1
15,120,1,0,0,1,10,710,916,SU,1
15,121,1,0,1,0,0,710,1300,SU,0
15,122,1,0,1,0,0,710,1500,SU,0
15,123,1,1,1,1,10,720,983,SU,1
15,124,1,1,1,1,10,730,1033,SU,1
15,125,1,1,1,1,10,740,900,SU,1
15,126,1,0,1,0,0,740,1666,SU,0
15,127,1,0,0,1,10,750,950,SU,1
15,128,1,0,1,0,0,750,1966,SU,0
15,129,1,0,0,1,10,760,1716,SU,1
15,130,1,0,0,1,10,770,1050,SU,1
15,131,1,1,1,1,10,780,1416,SU,1
15,132,1,0,1,0,0,780,883,SU,0
15,133,1,1,1,1,10,790,2366,SU,1
15,134,1,1,1,1,10,800,1733,SU,1
15,135,1,0,1,0,0,800,1383,SU,0
15,136,1,1,1,1,10,810,1916,SU,1
15,137,1,0,0,1,10,820,2100,SU,1
15,138,1,0,0,1,10,830,3266,SU,1
15,139,1,0,1,0,0,830,1800,SU,0
15,140,1,0,0,1,10,840,2533,SU,1
15,141,1,0,1,0,0,840,1350,SU,0
15,142,1,0,0,1,10,850,1650,SU,1
15,143,1,0,1,0,0,850,1350,SU,0
15,144,1,1,1,1,10,860,1566,SU,1
15,145,1,0,0,1,10,870,1983,SU,1
15,146,1,0,0,1,10,880,2316,SU,1
15,147,1,1,1,1,10,890,1583,SU,1
15,148,1,1,0,0,0,890,1750,SU,0
15,149,1,0,0,1,10,900,1683,SU,1
15,150,1,0,0,1,10,910,1416,SU,1
15,151,1,1,0,0,0,910,2700,SU,0
15,152,1,1,1,1,10,920,2467,SU,1
15,153,1,0,1,0,0,920,950,SU,0
15,154,1,0,0,1,10,930,1666,SU,1
15,155,1,1,0,0,0,930,933,SU,0
15,156,1,1,1,1,10,940,1900,SU,1
15,157,1,1,1,1,10,950,816,SU,1
15,158,1,1,1,1,10,960,866,SU,1
15,159,1,1,1,1,10,970,783,SU,1
15,160,1,1,1,1,10,980,2183,SU,1
15,161,1,1,1,1,10,990,900,SU,1
15,162,1,1,1,1,10,1000,850,SU,1
15,163,1,1,1,1,10,1010,1683,SU,1
15,164,1,1,1,1,10,1020,1500,SU,1
15,165,1,1,1,1,10,1030,1833,SU,1
15,166,1,0,1,0,0,1030,3150,SU,0
15,167,1,1,1,1,10,1040,1416,SU,1
15,168,1,0,0,1,10,1050,1800,SU,1
15,169,1,0,1,0,0,1050,1283,SU,0
15,170,1,0,0,1,10,1060,1833,SU,1
15,171,1,1,0,0,0,1060,2550,SU,0
15,172,1,1,1,1,10,1070,1766,SU,1
15,173,1,0,1,0,0,1070,2633,SU,0
15,174,1,1,1,1,10,1080,1466,SU,1
15,175,1,0,0,1,10,1090,1450,SU,1
15,176,1,1,1,1,10,1100,1216,SU,1
15,177,1,1,1,1,10,1110,1433,SU,1
15,178,1,0,0,1,10,1120,1450,SU,1
15,179,1,1,1,1,10,1130,1166,SU,1
15,180,1,1,1,1,10,1140,1300,SU,1
15,181,1,0,1,0,0,1140,1150,SU,0
15,182,1,1,1,1,10,1150,1750,SU,1
15,183,1,1,1,1,10,1160,1683,SU,1
15,184,1,1,1,1,10,1170,1300,SU,1
15,185,1,0,1,0,0,1170,1416,SU,0
15,186,1,0,0,1,10,1180,1300,SU,1
15,187,1,0,0,1,10,1190,1516,SU,1
15,188,1,1,1,1,10,1200,1216,SU,1
15,189,1,1,1,1,10,1210,2333,SU,1
15,190,1,0,1,0,0,1210,1400,SU,0
15,191,1,1,1,1,10,1220,2316,SU,1
15,192,1,0,1,0,0,1220,1916,SU,0
15,193,1,1,1,1,10,1230,1350,SU,1
15,194,1,1,1,1,10,1240,1466,SU,1
15,195,1,0,0,1,10,1250,1650,SU,1
15,196,1,1,1,1,10,1260,883,SU,1
15,197,1,1,1,1,10,1270,900,SU,1
15,198,1,0,0,1,10,1280,983,SU,1
15,199,1,0,0,1,10,1290,2150,SU,1
15,200,1,1,1,1,10,1300,916,SU,1
16,1,1,0,0,1,10,10,816,SU,1
16,2,1,0,0,1,10,20,750,SU,1
16,3,1,0,0,1,10,30,1000,SU,1
16,4,1,0,0,1,10,40,716,SU,1
16,5,1,0,0,1,10,50,933,SU,1
16,6,1,1,1,1,10,60,1116,SU,1
16,7,1,0,0,1,10,70,666,SU,1
16,8,1,1,0,0,0,70,833,SU,0
16,9,1,1,1,1,10,80,1000,SU,1
16,10,1,0,0,1,10,90,666,SU,1
16,11,1,0,1,0,0,90,883,SU,0
16,12,1,0,0,1,10,100,1083,SU,1
16,13,1,0,0,1,10,110,1216,SU,1
16,14,1,1,1,1,10,120,933,SU,1
16,15,1,1,1,1,10,130,1350,SU,1
16,16,1,0,0,1,10,140,1066,SU,1
16,17,1,0,0,1,10,150,1150,SU,1
16,18,1,0,0,1,10,160,1033,SU,1
16,19,1,1,1,1,10,170,1150,SU,1
16,20,1,1,1,1,10,180,750,SU,1
16,21,1,1,1,1,10,190,833,SU,1
16,22,1,0,0,1,10,200,883,SU,1
16,23,1,1,1,1,10,210,983,SU,1
16,24,1,1,1,1,10,220,1050,SU,1
16,25,1,1,1,1,10,230,1033,SU,1
16,26,1,1,0,0,0,230,650,SU,0
16,27,1,1,1,1,10,240,633,SU,1
16,28,1,0,0,1,10,250,683,SU,1
16,29,1,0,0,1,10,260,583,SU,1
16,30,1,0,1,0,0,260,1516,SU,0
16,31,1,0,0,1,10,270,600,SU,1
16,32,1,1,1,1,10,280,816,SU,1
16,33,1,0,0,1,10,290,3533,SU,1
16,34,1,0,1,0,0,290,733,SU,0
16,35,1,0,0,1,10,300,750,SU,1
16,36,1,0,0,1,10,310,533,SU,1
16,37,1,1,1,1,10,320,683,SU,1
16,38,1,1,1,1,10,330,850,SU,1
16,39,1,1,1,1,10,340,733,SU,1
16,40,1,0,0,1,10,350,633,SU,1
16,41,1,1,0,0,0,350,633,SU,0
16,42,1,0,0,1,10,360,716,SU,1
16,43,1,1,1,1,10,370,533,SU,1
16,44,1,1,1,1,10,380,616,SU,1
16,45,1,1,1,1,10,390,550,SU,1
16,46,1,0,1,0,0,390,950,SU,0
16,47,1,0,0,1,10,400,616,SU,1
16,48,1,1,1,1,10,410,1600,SU,1
16,49,1,0,0,1,10,420,3016,SU,1
16,50,1,0,0,1,10,430,1017,SU,1
16,51,1,0,0,1,10,440,733,SU,1
16,52,1,0,0,1,10,450,1050,SU,1
16,53,1,1,1,1,10,460,816,SU,1
16,54,1,1,1,1,10,470,900,SU,1
16,55,1,1,1,1,10,480,850,SU,1
16,56,1,0,0,1,10,490,1050,SU,1
16,57,1,0,0,1,10,500,1000,SU,1
16,58,1,1,1,1,10,510,783,SU,1
16,59,1,1,1,1,10,520,633,SU,1
16,60,1,0,0,1,10,530,1466,SU,1
16,61,1,1,1,1,10,540,583,SU,1
16,62,1,1,1,1,10,550,800,SU,1
16,63,1,1,1,1,10,560,700,SU,1
16,64,1,0,0,1,10,570,683,SU,1
16,65,1,1,1,1,10,580,766,SU,1
16,66,1,1,1,1,10,590,766,SU,1
16,67,1,0,0,1,10,600,1150,SU,1
16,68,1,0,0,1,10,610,883,SU,1
16,69,1,1,1,1,10,620,950,SU,1
16,70,1,1,1,1,10,630,783,SU,1
16,71,1,0,0,1,10,640,566,SU,1
16,72,1,0,1,0,0,640,766,SU,0
16,73,1,1,1,1,10,650,783,SU,1
16,74,1,1,1,1,10,660,750,SU,1
16,75,1,1,1,1,10,670,900,SU,1
16,76,1,1,0,0,0,670,750,SU,0
16,77,1,0,0,1,10,680,583,SU,1
16,78,1,1,1,1,10,690,716,SU,1
16,79,1,1,1,1,10,700,600,SU,1
16,80,1,0,0,1,10,710,800,SU,1
16,81,1,0,0,1,10,720,1250,SU,1
16,82,1,1,1,1,10,730,833,SU,1
16,83,1,1,1,1,10,740,966,SU,1
16,84,1,1,1,1,10,750,666,SU,1
16,85,1,0,0,1,10,760,700,SU,1
16,86,1,0,0,1,10,770,533,SU,1
16,87,1,0,0,1,10,780,1000,SU,1
16,88,1,1,1,1,10,790,933,SU,1
16,89,1,0,0,1,10,800,600,SU,1
16,90,1,0,0,1,10,810,533,SU,1
16,91,1,0,0,1,10,820,600,SU,1
16,92,1,0,0,1,10,830,583,SU,1
16,93,1,1,1,1,10,840,816,SU,1
16,94,1,1,1,1,10,850,633,SU,1
16,95,1,1,1,1,10,860,866,SU,1
16,96,1,1,1,1,10,870,833,SU,1
16,97,1,0,0,1,10,880,1033,SU,1
16,98,1,0,0,1,10,890,533,SU,1
16,99,1,1,0,0,0,890,1349,SU,0
16,100,1,1,1,1,10,900,566,SU,1
16,101,0,1,0,0,0,900,700,SU,0
16,102,0,1,0,0,0,900,633,SU,0
16,103,0,0,1,0,0,900,550,SU,0
16,104,0,1,0,0,0,900,1100,SU,0
16,105,0,1,0,0,0,900,900,SU,0
16,106,0,0,1,0,0,900,2133,SU,0
16,107,0,1,0,0,0,900,1050,SU,0
16,108,0,0,0,1,10,910,983,SU,1
16,109,0,1,1,1,10,920,950,SU,1
16,110,0,1,0,0,0,920,3316,SU,0
16,111,0,1,1,1,10,930,2700,SU,1
16,112,0,0,0,1,10,940,883,SU,1
16,113,0,0,0,1,10,950,1116,SU,1
16,114,0,1,1,1,10,960,1000,SU,1
16,115,0,1,1,1,10,970,5033,SU,1
16,116,0,0,0,1,10,980,2733,SU,1
16,117,0,0,0,1,10,990,966,SU,1
16,118,0,0,1,0,0,990,800,SU,0
16,119,0,0,0,1,10,1000,983,SU,1
16,120,0,0,0,1,10,1010,566,SU,1
16,121,0,0,0,1,10,1020,600,SU,1
16,122,0,0,0,1,10,1030,550,SU,1
16,123,0,1,0,0,0,1030,650,SU,0
16,124,0,0,0,1,10,1040,1016,SU,1
16,125,0,1,1,1,10,1050,733,SU,1
16,126,0,0,0,1,10,1060,916,SU,1
16,127,0,1,1,1,10,1070,1166,SU,1
16,128,0,1,1,1,10,1080,2150,SU,1
16,129,0,1,1,1,10,1090,1750,SU,1
16,130,0,1,1,1,10,1100,1433,SU,1
16,131,0,0,0,1,10,1110,1100,SU,1
16,132,0,1,1,1,10,1120,1650,SU,1
16,133,0,0,0,1,10,1130,783,SU,1
16,134,0,1,0,0,0,1130,1600,SU,0
16,135,0,0,0,1,10,1140,1133,SU,1
16,136,0,0,0,1,10,1150,2233,SU,1
16,137,0,0,0,1,10,1160,716,SU,1
16,138,0,0,0,1,10,1170,666,SU,1
16,139,0,1,1,1,10,1180,933,SU,1
16,140,0,1,1,1,10,1190,1050,SU,1
16,141,0,0,0,1,10,1200,850,SU,1
16,142,0,1,1,1,10,1210,866,SU,1
16,143,0,0,0,1,10,1220,1250,SU,1
16,144,0,0,1,0,0,1220,1316,SU,0
16,145,0,0,1,0,0,1220,983,SU,0
16,146,0,0,0,1,10,1230,516,SU,1
16,147,0,1,1,1,10,1240,1433,SU,1
16,148,0,0,0,1,10,1250,850,SU,1
16,149,0,1,1,1,10,1260,1133,SU,1
16,150,0,0,0,1,10,1270,1016,SU,1
16,151,0,0,0,1,10,1280,1166,SU,1
16,152,0,0,0,1,10,1290,683,SU,1
16,153,0,0,0,1,10,1300,600,SU,1
16,154,0,1,1,1,10,1310,833,SU,1
16,155,0,0,0,1,10,1320,800,SU,1
16,156,0,0,0,1,10,1330,833,SU,1
16,157,0,0,0,1,10,1340,816,SU,1
16,158,0,0,0,1,10,1350,1216,SU,1
16,159,0,1,1,1,10,1360,733,SU,1
16,160,0,1,1,1,10,1370,1016,SU,1
16,161,0,0,0,1,10,1380,833,SU,1
16,162,0,0,1,0,0,1380,2283,SU,0
16,163,0,0,1,0,0,1380,1083,SU,0
16,164,0,1,1,1,10,1390,1400,SU,1
16,165,0,1,1,1,10,1400,750,SU,1
16,166,0,1,1,1,10,1410,700,SU,1
16,167,0,0,1,0,0,1410,550,SU,0
16,168,0,1,0,0,0,1410,633,SU,0
16,169,0,1,0,0,0,1410,1250,SU,0
16,170,0,1,1,1,10,1420,1333,SU,1
16,171,0,1,1,1,10,1430,1000,SU,1
16,172,0,1,1,1,10,1440,1166,SU,1
16,173,0,1,1,1,10,1450,750,SU,1
16,174,0,0,0,1,10,1460,916,SU,1
16,175,0,0,0,1,10,1470,1516,SU,1
16,176,0,0,0,1,10,1480,916,SU,1
16,177,0,1,1,1,10,1490,833,SU,1
16,178,0,1,1,1,10,1500,2666,SU,1
16,179,0,0,0,1,10,1510,733,SU,1
16,180,0,1,1,1,10,1520,700,SU,1
16,181,0,0,0,1,10,1530,700,SU,1
16,182,0,0,0,1,10,1540,616,SU,1
16,183,0,0,0,1,10,1550,616,SU,1
16,184,0,1,1,1,10,1560,833,SU,1
16,185,0,1,1,1,10,1570,1116,SU,1
16,186,0,1,1,1,10,1580,966,SU,1
16,187,0,1,1,1,10,1590,783,SU,1
16,188,0,1,1,1,10,1600,883,SU,1
16,189,0,1,1,1,10,1610,650,SU,1
16,190,0,0,1,0,0,1610,983,SU,0
16,191,0,1,1,1,10,1620,966,SU,1
16,192,0,0,0,1,10,1630,550,SU,1
16,193,0,1,1,1,10,1640,600,SU,1
16,194,0,0,1,0,0,1640,533,SU,0
16,195,0,1,1,1,10,1650,550,SU,1
16,196,0,1,1,1,10,1660,966,SU,1
16,197,0,0,0,1,10,1670,900,SU,1
16,198,0,1,1,1,10,1680,1300,SU,1
16,199,0,1,1,1,10,1690,800,SU,1
16,200,0,0,0,1,10,1700,616,SU,1
17,1,1,0,0,1,10,10,10333,SU,1
17,2,1,1,0,0,0,10,1916,SU,0
17,3,1,1,0,0,0,10,733,SU,0
17,4,1,0,0,1,10,20,2566,SU,1
17,5,1,0,0,1,10,30,850,SU,1
17,6,1,1,1,1,10,40,1216,SU,1
17,7,1,0,0,1,10,50,1066,SU,1
17,8,1,0,0,1,10,60,1283,SU,1
17,9,1,0,0,1,10,70,1366,SU,1
17,10,1,1,1,1,10,80,1316,SU,1
17,11,1,0,1,0,0,80,1433,SU,0
17,12,1,1,1,1,10,90,1783,SU,1
17,13,1,1,1,1,10,100,1500,SU,1
17,14,1,0,0,1,10,110,816,SU,1
17,15,1,0,0,1,10,120,816,SU,1
17,16,1,0,0,1,10,130,700,SU,1
17,17,1,0,0,1,10,140,566,SU,1
17,18,1,1,1,1,10,150,1350,SU,1
17,19,1,0,0,1,10,160,1416,SU,1
17,20,1,1,1,1,10,170,3400,SU,1
17,21,1,0,0,1,10,180,2283,SU,1
17,22,1,1,1,1,10,190,1283,SU,1
17,23,1,1,1,1,10,200,1133,SU,1
17,24,1,1,1,1,10,210,766,SU,1
17,25,1,0,1,0,0,210,816,SU,0
17,26,1,1,1,1,10,220,866,SU,1
17,27,1,1,1,1,10,230,616,SU,1
17,28,1,0,0,1,10,240,933,SU,1
17,29,1,1,0,0,0,240,916,SU,0
17,30,1,0,1,0,0,240,1116,SU,0
17,31,1,0,0,1,10,250,1016,SU,1
17,32,1,0,0,1,10,260,800,SU,1
17,33,1,1,0,0,0,260,800,SU,0
17,34,1,1,1,1,10,270,850,SU,1
17,35,1,1,1,1,10,280,883,SU,1
17,36,1,1,1,1,10,290,766,SU,1
17,37,1,0,1,0,0,290,1950,SU,0
17,38,1,0,0,1,10,300,900,SU,1
17,39,1,1,0,0,0,300,4316,SU,0
17,40,1,1,1,1,10,310,1466,SU,1
17,41,1,1,1,1,10,320,1116,SU,1
17,42,1,1,0,0,0,320,800,SU,0
17,43,1,0,0,1,10,330,1300,SU,1
17,44,1,1,0,0,0,330,783,SU,0
17,45,1,1,0,0,0,330,2150,SU,0
17,46,1,1,1,1,10,340,850,SU,1
17,47,1,1,1,1,10,350,916,SU,1
17,48,1,1,0,0,0,350,900,SU,0
17,49,1,1,0,0,0,350,3816,SU,0
17,50,1,1,1,1,10,360,750,SU,1
17,51,1,0,0,1,10,370,916,SU,1
17,52,1,1,1,1,10,380,1783,SU,1
17,53,1,1,1,1,10,390,1400,SU,1
17,54,1,1,1,1,10,400,633,SU,1
17,55,1,1,1,1,10,410,1866,SU,1
17,56,1,0,1,0,0,410,916,SU,0
17,57,1,0,1,0,0,410,683,SU,0
17,58,1,0,0,1,10,420,816,SU,1
17,59,1,0,0,1,10,430,633,SU,1
17,60,1,0,0,1,10,440,983,SU,1
17,61,1,0,0,1,10,450,1183,SU,1
17,62,1,1,1,1,10,460,1266,SU,1
17,63,1,0,0,1,10,470,1600,SU,1
17,64,1,1,1,1,10,480,1316,SU,1
17,65,1,0,0,1,10,490,1533,SU,1
17,66,1,1,1,1,10,500,1033,SU,1
17,67,1,1,1,1,10,510,1150,SU,1
17,68,1,0,0,1,10,520,1316,SU,1
17,69,1,1,1,1,10,530,683,SU,1
17,70,1,0,0,1,10,540,766,SU,1
17,71,1,0,0,1,10,550,1400,SU,1
17,72,1,0,1,0,0,550,3633,SU,0
17,73,1,0,0,1,10,560,1716,SU,1
17,74,1,0,0,1,10,570,1366,SU,1
17,75,1,0,1,0,0,570,3233,SU,0
17,76,1,1,1,1,10,580,2666,SU,1
17,77,1,0,0,1,10,590,1616,SU,1
17,78,1,1,0,0,0,590,1633,SU,0
17,79,1,0,1,0,0,590,950,SU,0
17,80,1,0,1,0,0,590,667,SU,0
17,81,1,1,0,0,0,590,683,SU,0
17,82,1,1,1,1,10,600,3183,SU,1
17,83,1,0,0,1,10,610,2916,SU,1
17,84,1,0,0,1,10,620,1800,SU,1
17,85,1,0,0,1,10,630,3133,SU,1
17,86,1,0,0,1,10,640,3433,SU,1
17,87,1,1,0,0,0,640,1083,SU,0
17,88,1,0,1,0,0,640,4016,SU,0
17,89,1,1,1,1,10,650,850,SU,1
17,90,1,1,0,0,0,650,2200,SU,0
17,91,1,0,1,0,0,650,2600,SU,0
17,92,1,0,0,1,10,660,1200,SU,1
17,93,1,0,0,1,10,670,1050,SU,1
17,94,1,0,0,1,10,680,633,SU,1
17,95,1,1,1,1,10,690,1016,SU,1
17,96,1,1,1,1,10,700,1433,SU,1
17,97,1,0,1,0,0,700,1050,SU,0
17,98,1,1,0,0,0,700,1066,SU,0
17,99,1,1,1,1,10,710,566,SU,1
17,100,1,1,1,1,10,720,2333,SU,1
17,101,0,1,1,1,10,730,950,SU,1
17,102,0,0,1,0,0,730,1817,SU,0
17,103,0,1,0,0,0,730,1216,SU,0
17,104,0,1,1,1,10,740,3717,SU,1
17,105,0,1,0,0,0,740,1300,SU,0
17,106,0,1,0,0,0,740,1683,SU,0
17,107,0,1,0,0,0,740,7617,SU,0
17,108,0,1,1,1,10,750,816,SU,1
17,109,0,1,1,1,10,760,1050,SU,1
17,110,0,0,1,0,0,760,633,SU,0
17,111,0,1,1,1,10,770,2033,SU,1
17,112,0,1,1,1,10,780,1150,SU,1
17,113,0,0,1,0,0,780,583,SU,0
17,114,0,1,0,0,0,780,966,SU,0
17,115,0,1,1,1,10,790,1400,SU,1
17,116,0,1,1,1,10,800,833,SU,1
17,117,0,0,0,1,10,810,1066,SU,1
17,118,0,0,1,0,0,810,1166,SU,0
