"","SubNo","TrialNo","Mapping","State","Resp","Acc","Reward","Balance","ReactionTime","UncerCond","RewardedOrNot","RewardProp_WTA","RewardProp_PWRL","RewardProp_BISAW","RewardSucc_WTA","RewardSucc_PWRL","RewardSucc_BISAW","RewardFail_WTA","RewardFail_PWRL","RewardFail_BISAW"
"1",1,1,1,1,0,0,0,0,1484,"SU",0,0.52,0.46,0.55,52,46,55,48,54,45
"2",1,2,1,1,0,0,0,0,2316,"SU",0,0.52,0.61,0.58,52,61,58,48,39,42
"3",1,3,1,1,1,1,10,10,1319,"SU",1,0.53,0.56,0.69,53,56,69,47,44,31
"4",1,4,1,1,1,1,10,20,1000,"SU",1,0.63,0.6,0.78,63,60,78,37,40,22
"5",1,5,1,1,1,1,10,30,714,"SU",1,0.44,0.75,0.78,44,75,78,56,25,22
"6",1,6,1,1,1,1,10,40,900,"SU",1,0.54,0.7,0.83,54,70,83,46,30,17
"7",1,7,1,1,0,0,0,40,1033,"SU",0,0.55,0.67,0.84,55,67,84,45,33,16
"8",1,8,1,0,1,0,0,40,716,"SU",0,0.45,0.29,0.22,45,29,22,55,71,78
"9",1,9,1,0,1,0,0,40,967,"SU",0,0.52,0.33,0.34,52,33,34,48,67,66
"10",1,10,1,1,1,1,10,50,633,"SU",1,0.65,0.69,0.74,65,69,74,35,31,26
"11",1,11,1,0,1,0,0,50,816,"SU",0,0.49,0.36,0.45,49,36,45,51,64,55
"12",1,12,1,0,0,1,10,60,1100,"SU",1,0.47,0.51,0.5,47,51,50,53,49,50
"13",1,13,1,1,0,0,0,60,800,"SU",0,0.52,0.54,0.7,52,54,70,48,46,30
"14",1,14,1,1,1,1,10,70,1166,"SU",1,0.5,0.63,0.74,50,63,74,50,37,26
"15",1,15,1,0,1,0,0,70,866,"SU",0,0.52,0.48,0.56,52,48,56,48,52,44
"16",1,16,1,1,0,0,0,70,1566,"SU",0,0.58,0.61,0.7,58,61,70,42,39,30
"17",1,17,1,0,1,0,0,70,766,"SU",0,0.47,0.44,0.46,47,44,46,53,56,54
"18",1,18,1,0,0,1,10,80,1467,"SU",1,0.51,0.51,0.49,51,51,49,49,49,51
"19",1,19,1,1,1,1,10,90,2266,"SU",1,0.62,0.68,0.72,62,68,72,38,32,28
"20",1,20,1,0,1,0,0,90,750,"SU",0,0.53,0.48,0.68,53,48,68,47,52,32
"21",1,21,1,1,0,0,0,90,1200,"SU",0,0.6,0.64,0.69,60,64,69,40,36,31
"22",1,22,1,1,1,1,10,100,950,"SU",1,0.61,0.58,0.76,61,58,76,39,42,24
"23",1,23,1,1,1,1,10,110,1066,"SU",1,0.65,0.65,0.7,65,65,70,35,35,30
"24",1,24,1,0,1,0,0,110,633,"SU",0,0.53,0.45,0.54,53,45,54,47,55,46
"25",1,25,1,0,1,0,0,110,750,"SU",0,0.53,0.53,0.69,53,53,69,47,47,31
"26",1,26,1,0,1,0,0,110,1850,"SU",0,0.5,0.56,0.62,50,56,62,50,44,38
"27",1,27,1,1,0,0,0,110,1000,"SU",0,0.59,0.67,0.75,59,67,75,41,33,25
"28",1,28,1,0,1,0,0,110,1150,"SU",0,0.59,0.48,0.58,59,48,58,41,52,42
"29",1,29,1,1,0,0,0,110,1466,"SU",0,0.63,0.65,0.69,63,65,69,37,35,31
"30",1,30,1,1,1,1,10,120,1083,"SU",1,0.63,0.6,0.65,63,60,65,37,40,35
"31",1,31,1,1,0,0,0,120,1900,"SU",0,0.63,0.56,0.66,63,56,66,37,44,34
"32",1,32,1,1,0,0,0,120,1783,"SU",0,0.61,0.64,0.64,61,64,64,39,36,36
"33",1,33,1,0,0,1,10,130,2300,"SU",1,0.53,0.54,0.55,53,54,55,47,46,45
"34",1,34,1,0,0,1,10,140,1366,"SU",1,0.61,0.5,0.6,61,50,60,39,50,40
"35",1,35,1,1,0,0,0,140,1916,"SU",0,0.59,0.62,0.69,59,62,69,41,38,31
"36",1,36,1,1,1,1,10,150,1383,"SU",1,0.63,0.66,0.59,63,66,59,37,34,41
"37",1,37,1,0,1,0,0,150,1683,"SU",0,0.64,0.57,0.58,64,57,58,36,43,42
"38",1,38,1,0,1,0,0,150,1750,"SU",0,0.6,0.55,0.66,60,55,66,40,45,34
"39",1,39,1,1,1,1,10,160,4533,"SU",1,0.62,0.65,0.65,62,65,65,38,35,35
"40",1,40,1,0,0,1,10,170,1316,"SU",1,0.56,0.58,0.63,56,58,63,44,42,37
"41",1,41,1,1,1,1,10,180,1350,"SU",1,0.63,0.59,0.72,63,59,72,37,41,28
"42",1,42,1,1,0,0,0,180,2116,"SU",0,0.65,0.62,0.67,65,62,67,35,38,33
"43",1,43,1,1,0,0,0,180,1450,"SU",0,0.64,0.61,0.69,64,61,69,36,39,31
"44",1,44,1,1,1,1,10,190,1300,"SU",1,0.7,0.63,0.74,70,63,74,30,37,26
"45",1,45,1,1,1,1,10,200,1233,"SU",1,0.71,0.74,0.64,71,74,64,29,26,36
"46",1,46,1,0,1,0,0,200,817,"SU",0,0.53,0.63,0.47,53,63,47,47,37,53
"47",1,47,1,1,1,1,10,210,2017,"SU",1,0.69,0.67,0.69,69,67,69,31,33,31
"48",1,48,1,1,0,0,0,210,1083,"SU",0,0.66,0.61,0.64,66,61,64,34,39,36
"49",1,49,1,0,1,0,0,210,1250,"SU",0,0.57,0.62,0.56,57,62,56,43,38,44
"50",1,50,1,0,0,1,10,220,1266,"SU",1,0.57,0.59,0.59,57,59,59,43,41,41
"51",1,51,1,0,1,0,0,220,1250,"SU",0,0.66,0.53,0.47,66,53,47,34,47,53
"52",1,52,1,0,0,1,10,230,1517,"SU",1,0.65,0.6,0.57,65,60,57,35,40,43
"53",1,53,1,0,1,0,0,230,1783,"SU",0,0.62,0.65,0.61,62,65,61,38,35,39
"54",1,54,1,1,0,0,0,230,1116,"SU",0,0.51,0.66,0.69,51,66,69,49,34,31
"55",1,55,1,0,1,0,0,230,1233,"SU",0,0.55,0.63,0.48,55,63,48,45,37,52
"56",1,56,1,1,1,1,10,240,1400,"SU",1,0.65,0.63,0.66,65,63,66,35,37,34
"57",1,57,1,0,0,1,10,250,916,"SU",1,0.63,0.67,0.63,63,67,63,37,33,37
"58",1,58,1,1,1,1,10,260,1066,"SU",1,0.59,0.62,0.74,59,62,74,41,38,26
"59",1,59,1,1,0,0,0,260,1083,"SU",0,0.69,0.68,0.66,69,68,66,31,32,34
"60",1,60,1,0,0,1,10,270,783,"SU",1,0.59,0.65,0.56,59,65,56,41,35,44
"61",1,61,1,1,1,1,10,280,1183,"SU",1,0.69,0.68,0.57,69,68,57,31,32,43
"62",1,62,1,1,1,1,10,290,1000,"SU",1,0.58,0.65,0.69,58,65,69,42,35,31
"63",1,63,1,0,1,0,0,290,966,"SU",0,0.67,0.66,0.58,67,66,58,33,34,42
"64",1,64,1,0,0,1,10,300,1966,"SU",1,0.64,0.63,0.59,64,63,59,36,37,41
"65",1,65,1,0,0,1,10,310,1050,"SU",1,0.59,0.51,0.57,59,51,57,41,49,43
"66",1,66,1,1,1,1,10,320,983,"SU",1,0.68,0.6,0.71,68,60,71,32,40,29
"67",1,67,1,0,0,1,10,330,1966,"SU",1,0.59,0.66,0.59,59,66,59,41,34,41
"68",1,68,1,0,1,0,0,330,1500,"SU",0,0.65,0.65,0.63,65,65,63,35,35,37
"69",1,69,1,0,0,1,10,340,1200,"SU",1,0.6,0.66,0.64,60,66,64,40,34,36
"70",1,70,1,0,0,1,10,350,2050,"SU",1,0.73,0.63,0.69,73,63,69,27,37,31
"71",1,71,1,1,0,0,0,350,3066,"SU",0,0.72,0.67,0.66,72,67,66,28,33,34
"72",1,72,1,1,0,0,0,350,1583,"SU",0,0.72,0.71,0.57,72,71,57,28,29,43
"73",1,73,1,0,0,1,10,360,850,"SU",1,0.62,0.63,0.65,62,63,65,38,37,35
"74",1,74,1,0,0,1,10,370,1466,"SU",1,0.66,0.71,0.59,66,71,59,34,29,41
"75",1,75,1,1,1,1,10,380,1433,"SU",1,0.61,0.65,0.72,61,65,72,39,35,28
"76",1,76,1,0,0,1,10,390,2366,"SU",1,0.65,0.61,0.66,65,61,66,35,39,34
"77",1,77,1,1,0,0,0,390,1716,"SU",0,0.68,0.65,0.53,68,65,53,32,35,47
"78",1,78,1,0,0,1,10,400,1216,"SU",1,0.65,0.67,0.65,65,67,65,35,33,35
"79",1,79,1,1,1,1,10,410,3066,"SU",1,0.73,0.68,0.56,73,68,56,27,32,44
"80",1,80,1,1,1,1,10,420,1133,"SU",1,0.71,0.59,0.68,71,59,68,29,41,32
"81",1,81,1,0,0,1,10,430,1100,"SU",1,0.68,0.68,0.56,68,68,56,32,32,44
"82",1,82,1,0,0,1,10,440,1783,"SU",1,0.73,0.6,0.57,73,60,57,27,40,43
"83",1,83,1,0,0,1,10,450,1500,"SU",1,0.65,0.55,0.58,65,55,58,35,45,42
"84",1,84,1,0,0,1,10,460,900,"SU",1,0.69,0.58,0.61,69,58,61,31,42,39
"85",1,85,1,0,0,1,10,470,1033,"SU",1,0.76,0.69,0.63,76,69,63,24,31,37
"86",1,86,1,0,1,0,0,470,1016,"SU",0,0.72,0.74,0.58,72,74,58,28,26,42
"87",1,87,1,1,1,1,10,480,1350,"SU",1,0.74,0.64,0.59,74,64,59,26,36,41
"88",1,88,1,1,1,1,10,490,900,"SU",1,0.79,0.71,0.63,79,71,63,21,29,37
"89",1,89,1,0,1,0,0,490,916,"SU",0,0.77,0.63,0.66,77,63,66,23,37,34
"90",1,90,1,1,1,1,10,500,1300,"SU",1,0.72,0.63,0.59,72,63,59,28,37,41
"91",1,91,1,0,0,1,10,510,1800,"SU",1,0.69,0.62,0.64,69,62,64,31,38,36
"92",1,92,1,0,0,1,10,520,1216,"SU",1,0.72,0.64,0.65,72,64,65,28,36,35
"93",1,93,1,0,0,1,10,530,1700,"SU",1,0.75,0.65,0.71,75,65,71,25,35,29
"94",1,94,1,0,1,0,0,530,1300,"SU",0,0.84,0.56,0.67,84,56,67,16,44,33
"95",1,95,1,0,0,1,10,540,1616,"SU",1,0.74,0.7,0.65,74,70,65,26,30,35
"96",1,96,1,1,1,1,10,550,999,"SU",1,0.76,0.61,0.68,76,61,68,24,39,32
"97",1,97,1,1,0,0,0,550,1250,"SU",0,0.67,0.59,0.68,67,59,68,33,41,32
"98",1,98,1,0,0,1,10,560,1600,"SU",1,0.66,0.57,0.57,66,57,57,34,43,43
"99",1,99,1,1,1,1,10,570,1366,"SU",1,0.73,0.69,0.64,73,69,64,27,31,36
"100",1,100,1,1,1,1,10,580,1650,"SU",1,0.69,0.68,0.65,69,68,65,31,32,35
"101",1,101,0,0,1,0,0,580,1933,"SU",0,0.25,0.32,0.42,25,32,42,75,68,58
"102",1,102,0,1,0,0,0,580,1816,"SU",0,0.24,0.42,0.31,24,42,31,76,58,69
"103",1,103,0,1,1,1,10,590,1233,"SU",1,0.22,0.38,0.3,22,38,30,78,62,70
"104",1,104,0,0,1,0,0,590,1083,"SU",0,0.26,0.37,0.41,26,37,41,74,63,59
"105",1,105,0,0,1,0,0,590,1366,"SU",0,0.24,0.4,0.41,24,40,41,76,60,59
"106",1,106,0,0,0,1,10,600,1499,"SU",1,0.3,0.38,0.34,30,38,34,70,62,66
"107",1,107,0,1,1,1,10,610,2283,"SU",1,0.32,0.37,0.35,32,37,35,68,63,65
"108",1,108,0,0,1,0,0,610,1250,"SU",0,0.35,0.39,0.36,35,39,36,65,61,64
"109",1,109,0,1,1,1,10,620,1733,"SU",1,0.29,0.36,0.41,29,36,41,71,64,59
"110",1,110,0,0,1,0,0,620,1666,"SU",0,0.29,0.37,0.44,29,37,44,71,63,56
"111",1,111,0,1,0,0,0,620,1350,"SU",0,0.23,0.43,0.39,23,43,39,77,57,61
"112",1,112,0,1,1,1,10,630,1050,"SU",1,0.26,0.4,0.35,26,40,35,74,60,65
"113",1,113,0,0,0,1,10,640,1200,"SU",1,0.35,0.35,0.43,35,35,43,65,65,57
"114",1,114,0,0,1,0,0,640,983,"SU",0,0.26,0.36,0.43,26,36,43,74,64,57
"115",1,115,0,1,0,0,0,640,1200,"SU",0,0.27,0.41,0.27,27,41,27,73,59,73
"116",1,116,0,1,0,0,0,640,1633,"SU",0,0.25,0.43,0.44,25,43,44,75,57,56
"117",1,117,0,1,0,0,0,640,1250,"SU",0,0.36,0.33,0.43,36,33,43,64,67,57
"118",1,118,0,0,1,0,0,640,983,"SU",0,0.3,0.32,0.43,30,32,43,70,68,57
"119",1,119,0,0,1,0,0,640,2150,"SU",0,0.34,0.37,0.43,34,37,43,66,63,57
"120",1,120,0,0,1,0,0,640,1816,"SU",0,0.4,0.3,0.43,40,30,43,60,70,57
"121",1,121,0,0,0,1,10,650,1266,"SU",1,0.29,0.41,0.43,29,41,43,71,59,57
"122",1,122,0,1,1,1,10,660,1383,"SU",1,0.32,0.42,0.38,32,42,38,68,58,62
"123",1,123,0,1,0,0,0,660,1116,"SU",0,0.28,0.42,0.43,28,42,43,72,58,57
"124",1,124,0,1,1,1,10,670,1183,"SU",1,0.25,0.33,0.43,25,33,43,75,67,57
"125",1,125,0,1,0,0,0,670,1216,"SU",0,0.32,0.31,0.39,32,31,39,68,69,61
"126",1,126,0,0,1,0,0,670,1150,"SU",0,0.27,0.32,0.43,27,32,43,73,68,57
"127",1,127,0,1,0,0,0,670,883,"SU",0,0.25,0.33,0.51,25,33,51,75,67,49
"128",1,128,0,0,0,1,10,680,2116,"SU",1,0.29,0.38,0.44,29,38,44,71,62,56
"129",1,129,0,0,1,0,0,680,1317,"SU",0,0.27,0.25,0.33,27,25,33,73,75,67
"130",1,130,0,1,1,1,10,690,916,"SU",1,0.31,0.31,0.4,31,31,40,69,69,60
"131",1,131,0,1,1,1,10,700,916,"SU",1,0.28,0.4,0.41,28,40,41,72,60,59
"132",1,132,0,1,0,0,0,700,1116,"SU",0,0.32,0.41,0.49,32,41,49,68,59,51
"133",1,133,0,0,1,0,0,700,783,"SU",0,0.41,0.35,0.48,41,35,48,59,65,52
"134",1,134,0,1,0,0,0,700,1133,"SU",0,0.37,0.37,0.37,37,37,37,63,63,63
"135",1,135,0,0,1,0,0,700,2350,"SU",0,0.34,0.33,0.37,34,33,37,66,67,63
"136",1,136,0,1,0,0,0,700,950,"SU",0,0.34,0.37,0.39,34,37,39,66,63,61
"137",1,137,0,0,1,0,0,700,1117,"SU",0,0.34,0.41,0.44,34,41,44,66,59,56
"138",1,138,0,0,0,1,10,710,866,"SU",1,0.38,0.33,0.34,38,33,34,62,67,66
"139",1,139,0,1,1,1,10,720,1083,"SU",1,0.39,0.41,0.36,39,41,36,61,59,64
"140",1,140,0,1,0,0,0,720,1083,"SU",0,0.39,0.42,0.44,39,42,44,61,58,56
"141",1,141,0,0,0,1,10,730,1650,"SU",1,0.32,0.31,0.36,32,31,36,68,69,64
"142",1,142,0,1,0,0,0,730,1533,"SU",0,0.34,0.35,0.5,34,35,50,66,65,50
"143",1,143,0,1,1,1,10,740,733,"SU",1,0.29,0.34,0.46,29,34,46,71,66,54
"144",1,144,0,0,1,0,0,740,983,"SU",0,0.29,0.39,0.48,29,39,48,71,61,52
"145",1,145,0,0,1,0,0,740,850,"SU",0,0.35,0.29,0.39,35,29,39,65,71,61
"146",1,146,0,0,0,1,10,750,933,"SU",1,0.39,0.42,0.47,39,42,47,61,58,53
"147",1,147,0,0,0,1,10,760,716,"SU",1,0.37,0.3,0.38,37,30,38,63,70,62
"148",1,148,0,1,0,0,0,760,700,"SU",0,0.37,0.41,0.42,37,41,42,63,59,58
"149",1,149,0,1,1,1,10,770,850,"SU",1,0.34,0.37,0.51,34,37,51,66,63,49
"150",1,150,0,1,0,0,0,770,1383,"SU",0,0.39,0.3,0.51,39,30,51,61,70,49
"151",1,151,0,1,1,1,10,780,1650,"SU",1,0.41,0.41,0.46,41,41,46,59,59,54
"152",1,152,0,0,1,0,0,780,1783,"SU",0,0.39,0.33,0.43,39,33,43,61,67,57
"153",1,153,0,1,0,0,0,780,1416,"SU",0,0.46,0.43,0.45,46,43,45,54,57,55
"154",1,154,0,1,1,1,10,790,1367,"SU",1,0.45,0.27,0.47,45,27,47,55,73,53
"155",1,155,0,1,1,1,10,800,1000,"SU",1,0.42,0.42,0.56,42,42,56,58,58,44
"156",1,156,0,1,1,1,10,810,966,"SU",1,0.27,0.4,0.5,27,40,50,73,60,50
"157",1,157,0,1,1,1,10,820,1833,"SU",1,0.45,0.43,0.45,45,43,45,55,57,55
"158",1,158,0,1,0,0,0,820,1233,"SU",0,0.4,0.56,0.55,40,56,55,60,44,45
"159",1,159,0,0,1,0,0,820,1083,"SU",0,0.32,0.43,0.37,32,43,37,68,57,63
"160",1,160,0,0,1,0,0,820,1066,"SU",0,0.4,0.32,0.5,40,32,50,60,68,50
"161",1,161,0,1,0,0,0,820,900,"SU",0,0.47,0.42,0.56,47,42,56,53,58,44
"162",1,162,0,0,1,0,0,820,966,"SU",0,0.41,0.32,0.38,41,32,38,59,68,62
"163",1,163,0,1,1,1,10,830,1716,"SU",1,0.45,0.4,0.52,45,40,52,55,60,48
"164",1,164,0,1,0,0,0,830,966,"SU",0,0.35,0.55,0.57,35,55,57,65,45,43
"165",1,165,0,1,1,1,10,840,1283,"SU",1,0.48,0.52,0.5,48,52,50,52,48,50
"166",1,166,0,1,0,0,0,840,1533,"SU",0,0.39,0.49,0.52,39,49,52,61,51,48
"167",1,167,0,0,0,1,10,850,883,"SU",1,0.38,0.28,0.4,38,28,40,62,72,60
"168",1,168,0,0,1,0,0,850,1583,"SU",0,0.33,0.35,0.45,33,35,45,67,65,55
"169",1,169,0,0,0,1,10,860,1300,"SU",1,0.25,0.27,0.49,25,27,49,75,73,51
"170",1,170,0,0,1,0,0,860,817,"SU",0,0.35,0.28,0.41,35,28,41,65,72,59
"171",1,171,0,0,1,0,0,860,700,"SU",0,0.35,0.38,0.46,35,38,46,65,62,54
"172",1,172,0,1,0,0,0,860,1000,"SU",0,0.49,0.43,0.55,49,43,55,51,57,45
"173",1,173,0,0,0,1,10,870,1133,"SU",1,0.39,0.26,0.47,39,26,47,61,74,53
"174",1,174,0,1,0,0,0,870,1916,"SU",0,0.37,0.33,0.55,37,33,55,63,67,45
"175",1,175,0,0,1,0,0,870,1916,"SU",0,0.39,0.34,0.45,39,34,45,61,66,55
"176",1,176,0,1,0,0,0,870,1616,"SU",0,0.51,0.32,0.51,51,32,51,49,68,49
"177",1,177,0,0,1,0,0,870,1783,"SU",0,0.43,0.31,0.41,43,31,41,57,69,59
"178",1,178,0,0,1,0,0,870,1333,"SU",0,0.48,0.38,0.48,48,38,48,52,62,52
"179",1,179,0,0,1,0,0,870,1550,"SU",0,0.38,0.33,0.47,38,33,47,62,67,53
"180",1,180,0,0,0,1,10,880,1633,"SU",1,0.34,0.41,0.51,34,41,51,66,59,49
"181",1,181,0,0,1,0,0,880,2316,"SU",0,0.46,0.45,0.49,46,45,49,54,55,51
"182",1,182,0,0,0,1,10,890,1633,"SU",1,0.51,0.46,0.52,51,46,52,49,54,48
"183",1,183,0,1,0,0,0,890,1200,"SU",0,0.46,0.43,0.47,46,43,47,54,57,53
"184",1,184,0,1,0,0,0,890,1300,"SU",0,0.52,0.37,0.59,52,37,59,48,63,41
"185",1,185,0,0,0,1,10,900,1533,"SU",1,0.46,0.41,0.52,46,41,52,54,59,48
"186",1,186,0,0,0,1,10,910,2216,"SU",1,0.46,0.53,0.55,46,53,55,54,47,45
"187",1,187,0,0,1,0,0,910,1516,"SU",0,0.46,0.39,0.45,46,39,45,54,61,55
"188",1,188,0,0,1,0,0,910,850,"SU",0,0.52,0.47,0.51,52,47,51,48,53,49
"189",1,189,0,0,0,1,10,920,1133,"SU",1,0.53,0.5,0.48,53,50,48,47,50,52
"190",1,190,0,0,1,0,0,920,1066,"SU",0,0.48,0.49,0.43,48,49,43,52,51,57
"191",1,191,0,0,0,1,10,930,683,"SU",1,0.44,0.54,0.59,44,54,59,56,46,41
"192",1,192,0,0,1,0,0,930,1366,"SU",0,0.48,0.57,0.5,48,57,50,52,43,50
"193",1,193,0,1,0,0,0,930,1200,"SU",0,0.36,0.3,0.54,36,30,54,64,70,46
"194",1,194,0,1,1,1,10,940,750,"SU",1,0.4,0.3,0.49,40,30,49,60,70,51
"195",1,195,0,1,0,0,0,940,883,"SU",0,0.45,0.29,0.43,45,29,43,55,71,57
"196",1,196,0,1,1,1,10,950,650,"SU",1,0.44,0.43,0.52,44,43,52,56,57,48
"197",1,197,0,1,1,1,10,960,866,"SU",1,0.53,0.33,0.49,53,33,49,47,67,51
"198",1,198,0,0,1,0,0,960,800,"SU",0,0.59,0.5,0.55,59,50,55,41,50,45
"199",1,199,0,1,0,0,0,960,716,"SU",0,0.46,0.44,0.52,46,44,52,54,56,48
"200",1,200,0,1,0,0,0,960,1433,"SU",0,0.53,0.37,0.46,53,37,46,47,63,54
"201",2,1,1,1,0,0,0,0,2450,"SU",0,0.47,0.48,0.55,47,48,55,53,52,45
"202",2,2,1,0,0,1,10,10,1116,"SU",1,0.48,0.44,0.48,48,44,48,52,56,52
"203",2,3,1,0,0,1,10,20,1016,"SU",1,0.63,0.56,0.53,63,56,53,37,44,47
"204",2,4,1,0,0,1,10,30,833,"SU",1,0.5,0.57,0.52,50,57,52,50,43,48
"205",2,5,1,0,0,1,10,40,700,"SU",1,0.57,0.57,0.67,57,57,67,43,43,33
"206",2,6,1,1,0,0,0,40,766,"SU",0,0.42,0.49,0.48,42,49,48,58,51,52
"207",2,7,1,1,1,1,10,50,1116,"SU",1,0.54,0.54,0.52,54,54,52,46,46,48
"208",2,8,1,1,0,0,0,50,1116,"SU",0,0.52,0.69,0.59,52,69,59,48,31,41
"209",2,9,1,0,1,0,0,50,1100,"SU",0,0.62,0.54,0.63,62,54,63,38,46,37
"210",2,10,1,1,0,0,0,50,1016,"SU",0,0.61,0.64,0.58,61,64,58,39,36,42
"211",2,11,1,0,0,1,10,60,1300,"SU",1,0.49,0.55,0.52,49,55,52,51,45,48
"212",2,12,1,0,0,1,10,70,1016,"SU",1,0.59,0.54,0.57,59,54,57,41,46,43
"213",2,13,1,1,0,0,0,70,900,"SU",0,0.54,0.56,0.58,54,56,58,46,44,42
"214",2,14,1,0,0,1,10,80,633,"SU",1,0.5,0.6,0.62,50,60,62,50,40,38
"215",2,15,1,1,1,1,10,90,1100,"SU",1,0.59,0.52,0.52,59,52,52,41,48,48
"216",2,16,1,1,0,0,0,90,933,"SU",0,0.61,0.51,0.65,61,51,65,39,49,35
"217",2,17,1,1,1,1,10,100,950,"SU",1,0.69,0.62,0.62,69,62,62,31,38,38
"218",2,18,1,1,0,0,0,100,750,"SU",0,0.66,0.55,0.59,66,55,59,34,45,41
"219",2,19,1,0,0,1,10,110,916,"SU",1,0.6,0.56,0.66,60,56,66,40,44,34
"220",2,20,1,0,0,1,10,120,1383,"SU",1,0.6,0.64,0.6,60,64,60,40,36,40
"221",2,21,1,0,1,0,0,120,1650,"SU",0,0.62,0.56,0.65,62,56,65,38,44,35
"222",2,22,1,0,0,1,10,130,966,"SU",1,0.71,0.66,0.63,71,66,63,29,34,37
"223",2,23,1,1,1,1,10,140,1100,"SU",1,0.58,0.56,0.57,58,56,57,42,44,43
"224",2,24,1,1,0,0,0,140,916,"SU",0,0.56,0.59,0.71,56,59,71,44,41,29
"225",2,25,1,1,1,1,10,150,1100,"SU",1,0.59,0.64,0.62,59,64,62,41,36,38
"226",2,26,1,0,0,1,10,160,866,"SU",1,0.54,0.62,0.52,54,62,52,46,38,48
"227",2,27,1,0,0,1,10,170,950,"SU",1,0.58,0.57,0.57,58,57,57,42,43,43
"228",2,28,1,1,1,1,10,180,983,"SU",1,0.57,0.56,0.62,57,56,62,43,44,38
"229",2,29,1,1,1,1,10,190,1366,"SU",1,0.53,0.59,0.53,53,59,53,47,41,47
"230",2,30,1,1,1,1,10,200,766,"SU",1,0.61,0.55,0.63,61,55,63,39,45,37
"231",2,31,1,1,0,0,0,200,1000,"SU",0,0.61,0.55,0.51,61,55,51,39,45,49
"232",2,32,1,0,0,1,10,210,800,"SU",1,0.51,0.53,0.54,51,53,54,49,47,46
"233",2,33,1,1,1,1,10,220,1083,"SU",1,0.59,0.62,0.7,59,62,70,41,38,30
"234",2,34,1,0,0,1,10,230,1150,"SU",1,0.59,0.6,0.64,59,60,64,41,40,36
"235",2,35,1,1,1,1,10,240,700,"SU",1,0.57,0.59,0.62,57,59,62,43,41,38
"236",2,36,1,0,1,0,0,240,2916,"SU",0,0.59,0.61,0.63,59,61,63,41,39,37
"237",2,37,1,0,0,1,10,250,1716,"SU",1,0.6,0.64,0.61,60,64,61,40,36,39
"238",2,38,1,1,1,1,10,260,900,"SU",1,0.61,0.55,0.55,61,55,55,39,45,45
"239",2,39,1,0,1,0,0,260,3650,"SU",0,0.57,0.53,0.51,57,53,51,43,47,49
"240",2,40,1,1,0,0,0,260,900,"SU",0,0.58,0.69,0.55,58,69,55,42,31,45
"241",2,41,1,1,0,0,0,260,1016,"SU",0,0.62,0.51,0.55,62,51,55,38,49,45
"242",2,42,1,0,1,0,0,260,700,"SU",0,0.52,0.59,0.57,52,59,57,48,41,43
"243",2,43,1,1,0,0,0,260,1033,"SU",0,0.66,0.63,0.55,66,63,55,34,37,45
"244",2,44,1,1,1,1,10,270,1200,"SU",1,0.67,0.64,0.6,67,64,60,33,36,40
"245",2,45,1,0,1,0,0,270,1233,"SU",0,0.6,0.6,0.55,60,60,55,40,40,45
"246",2,46,1,1,0,0,0,270,1016,"SU",0,0.59,0.58,0.68,59,58,68,41,42,32
"247",2,47,1,0,1,0,0,270,900,"SU",0,0.54,0.65,0.53,54,65,53,46,35,47
"248",2,48,1,1,1,1,10,280,1450,"SU",1,0.56,0.52,0.48,56,52,48,44,48,52
"249",2,49,1,0,0,1,10,290,666,"SU",1,0.55,0.49,0.56,55,49,56,45,51,44
"250",2,50,1,1,1,1,10,300,1033,"SU",1,0.66,0.59,0.58,66,59,58,34,41,42
"251",2,51,1,0,0,1,10,310,1183,"SU",1,0.54,0.63,0.68,54,63,68,46,37,32
"252",2,52,1,0,1,0,0,310,933,"SU",0,0.55,0.55,0.65,55,55,65,45,45,35
"253",2,53,1,0,1,0,0,310,1300,"SU",0,0.59,0.69,0.68,59,69,68,41,31,32
"254",2,54,1,1,1,1,10,320,2166,"SU",1,0.63,0.56,0.56,63,56,56,37,44,44
"255",2,55,1,0,1,0,0,320,766,"SU",0,0.58,0.6,0.62,58,60,62,42,40,38
"256",2,56,1,0,0,1,10,330,1016,"SU",1,0.65,0.61,0.62,65,61,62,35,39,38
"257",2,57,1,1,1,1,10,340,733,"SU",1,0.57,0.55,0.56,57,55,56,43,45,44
"258",2,58,1,0,1,0,0,340,1616,"SU",0,0.57,0.64,0.62,57,64,62,43,36,38
"259",2,59,1,0,0,1,10,350,633,"SU",1,0.6,0.57,0.64,60,57,64,40,43,36
"260",2,60,1,0,1,0,0,350,1983,"SU",0,0.66,0.5,0.64,66,50,64,34,50,36
"261",2,61,1,0,0,1,10,360,1000,"SU",1,0.65,0.58,0.63,65,58,63,35,42,37
"262",2,62,1,0,1,0,0,360,950,"SU",0,0.61,0.49,0.61,61,49,61,39,51,39
"263",2,63,1,0,0,1,10,370,1216,"SU",1,0.64,0.6,0.61,64,60,61,36,40,39
"264",2,64,1,0,0,1,10,380,700,"SU",1,0.54,0.65,0.59,54,65,59,46,35,41
"265",2,65,1,0,0,1,10,390,766,"SU",1,0.68,0.64,0.61,68,64,61,32,36,39
"266",2,66,1,1,1,1,10,400,1033,"SU",1,0.41,0.61,0.51,41,61,51,59,39,49
"267",2,67,1,0,0,1,10,410,1183,"SU",1,0.62,0.55,0.58,62,55,58,38,45,42
"268",2,68,1,1,0,0,0,410,1083,"SU",0,0.47,0.5,0.58,47,50,58,53,50,42
"269",2,69,1,1,1,1,10,420,1266,"SU",1,0.53,0.54,0.57,53,54,57,47,46,43
"270",2,70,1,1,0,0,0,420,1300,"SU",0,0.55,0.6,0.66,55,60,66,45,40,34
"271",2,71,1,0,0,1,10,430,1783,"SU",1,0.45,0.63,0.51,45,63,51,55,37,49
"272",2,72,1,1,1,1,10,440,933,"SU",1,0.53,0.46,0.63,53,46,63,47,54,37
"273",2,73,1,1,1,1,10,450,916,"SU",1,0.53,0.6,0.63,53,60,63,47,40,37
"274",2,74,1,1,1,1,10,460,866,"SU",1,0.56,0.55,0.65,56,55,65,44,45,35
"275",2,75,1,0,1,0,0,460,1216,"SU",0,0.58,0.58,0.59,58,58,59,42,42,41
"276",2,76,1,1,0,0,0,460,683,"SU",0,0.55,0.53,0.59,55,53,59,45,47,41
"277",2,77,1,1,1,1,10,470,916,"SU",1,0.69,0.53,0.57,69,53,57,31,47,43
"278",2,78,1,0,1,0,0,470,900,"SU",0,0.53,0.59,0.59,53,59,59,47,41,41
"279",2,79,1,0,1,0,0,470,1683,"SU",0,0.59,0.51,0.6,59,51,60,41,49,40
"280",2,80,1,1,0,0,0,470,916,"SU",0,0.55,0.51,0.6,55,51,60,45,49,40
"281",2,81,1,1,1,1,10,480,1166,"SU",1,0.56,0.61,0.63,56,61,63,44,39,37
"282",2,82,1,0,0,1,10,490,1316,"SU",1,0.57,0.5,0.55,57,50,55,43,50,45
"283",2,83,1,0,0,1,10,500,1550,"SU",1,0.64,0.53,0.53,64,53,53,36,47,47
"284",2,84,1,0,0,1,10,510,1616,"SU",1,0.61,0.67,0.62,61,67,62,39,33,38
"285",2,85,1,1,0,0,0,510,1150,"SU",0,0.66,0.63,0.54,66,63,54,34,37,46
"286",2,86,1,0,1,0,0,510,900,"SU",0,0.66,0.63,0.64,66,63,64,34,37,36
"287",2,87,1,1,0,0,0,510,883,"SU",0,0.66,0.63,0.6,66,63,60,34,37,40
"288",2,88,1,1,0,0,0,510,1033,"SU",0,0.69,0.55,0.62,69,55,62,31,45,38
"289",2,89,1,1,1,1,10,520,800,"SU",1,0.51,0.68,0.66,51,68,66,49,32,34
"290",2,90,1,1,0,0,0,520,966,"SU",0,0.62,0.5,0.65,62,50,65,38,50,35
"291",2,91,1,1,0,0,0,520,1133,"SU",0,0.64,0.56,0.66,64,56,66,36,44,34
"292",2,92,1,1,1,1,10,530,1716,"SU",1,0.67,0.5,0.6,67,50,60,33,50,40
"293",2,93,1,1,0,0,0,530,1833,"SU",0,0.6,0.63,0.59,60,63,59,40,37,41
"294",2,94,1,0,1,0,0,530,1216,"SU",0,0.57,0.6,0.52,57,60,52,43,40,48
"295",2,95,1,0,1,0,0,530,2100,"SU",0,0.52,0.58,0.63,52,58,63,48,42,37
"296",2,96,1,1,0,0,0,530,816,"SU",0,0.58,0.45,0.6,58,45,60,42,55,40
"297",2,97,1,1,0,0,0,530,866,"SU",0,0.61,0.57,0.59,61,57,59,39,43,41
"298",2,98,1,0,0,1,10,540,1750,"SU",1,0.52,0.56,0.57,52,56,57,48,44,43
"299",2,99,1,0,0,1,10,550,700,"SU",1,0.59,0.46,0.58,59,46,58,41,54,42
"300",2,100,1,0,0,1,10,560,1150,"SU",1,0.56,0.53,0.54,56,53,54,44,47,46
"301",2,101,0,1,0,0,0,560,950,"SU",0,0.35,0.46,0.53,35,46,53,65,54,47
"302",2,102,0,1,0,0,0,560,1233,"SU",0,0.52,0.46,0.58,52,46,58,48,54,42
"303",2,103,0,1,1,1,10,570,683,"SU",1,0.54,0.46,0.54,54,46,54,46,54,46
"304",2,104,0,1,1,1,10,580,783,"SU",1,0.56,0.38,0.59,56,38,59,44,62,41
"305",2,105,0,0,1,0,0,580,833,"SU",0,0.38,0.4,0.39,38,40,39,62,60,61
"306",2,106,0,0,0,1,10,590,1083,"SU",1,0.34,0.48,0.47,34,48,47,66,52,53
"307",2,107,0,0,0,1,10,600,933,"SU",1,0.38,0.42,0.52,38,42,52,62,58,48
"308",2,108,0,1,1,1,10,610,1033,"SU",1,0.62,0.45,0.53,62,45,53,38,55,47
"309",2,109,0,0,0,1,10,620,900,"SU",1,0.45,0.39,0.55,45,39,55,55,61,45
"310",2,110,0,0,0,1,10,630,1066,"SU",1,0.57,0.48,0.51,57,48,51,43,52,49
"311",2,111,0,0,0,1,10,640,816,"SU",1,0.59,0.55,0.57,59,55,57,41,45,43
"312",2,112,0,1,0,0,0,640,1883,"SU",0,0.59,0.45,0.55,59,45,55,41,55,45
"313",2,113,0,0,1,0,0,640,1716,"SU",0,0.57,0.46,0.63,57,46,63,43,54,37
"314",2,114,0,1,0,0,0,640,1233,"SU",0,0.58,0.42,0.57,58,42,57,42,58,43
"315",2,115,0,0,1,0,0,640,2750,"SU",0,0.57,0.58,0.51,57,58,51,43,42,49
"316",2,116,0,1,1,1,10,650,1300,"SU",1,0.54,0.56,0.56,54,56,56,46,44,44
"317",2,117,0,1,1,1,10,660,1033,"SU",1,0.55,0.55,0.56,55,55,56,45,45,44
"318",2,118,0,1,0,0,0,660,1050,"SU",0,0.64,0.52,0.54,64,52,54,36,48,46
"319",2,119,0,0,1,0,0,660,1066,"SU",0,0.54,0.58,0.53,54,58,53,46,42,47
"320",2,120,0,1,1,1,10,670,950,"SU",1,0.64,0.48,0.66,64,48,66,36,52,34
"321",2,121,0,1,0,0,0,670,950,"SU",0,0.69,0.58,0.69,69,58,69,31,42,31
"322",2,122,0,1,0,0,0,670,1050,"SU",0,0.63,0.56,0.61,63,56,61,37,44,39
"323",2,123,0,0,0,1,10,680,700,"SU",1,0.55,0.47,0.53,55,47,53,45,53,47
"324",2,124,0,0,0,1,10,690,700,"SU",1,0.53,0.58,0.57,53,58,57,47,42,43
"325",2,125,0,1,1,1,10,700,1066,"SU",1,0.56,0.43,0.64,56,43,64,44,57,36
"326",2,126,0,0,1,0,0,700,1016,"SU",0,0.63,0.5,0.53,63,50,53,37,50,47
"327",2,127,0,0,0,1,10,710,1183,"SU",1,0.63,0.54,0.54,63,54,54,37,46,46
"328",2,128,0,0,0,1,10,720,716,"SU",1,0.63,0.59,0.56,63,59,56,37,41,44
"329",2,129,0,0,0,1,10,730,1133,"SU",1,0.62,0.56,0.65,62,56,65,38,44,35
"330",2,130,0,0,1,0,0,730,1500,"SU",0,0.56,0.49,0.58,56,49,58,44,51,42
"331",2,131,0,0,0,1,10,740,616,"SU",1,0.59,0.62,0.51,59,62,51,41,38,49
"332",2,132,0,1,1,1,10,750,1300,"SU",1,0.54,0.49,0.64,54,49,64,46,51,36
"333",2,133,0,1,1,1,10,760,916,"SU",1,0.55,0.49,0.6,55,49,60,45,51,40
"334",2,134,0,0,1,0,0,760,1966,"SU",0,0.63,0.56,0.52,63,56,52,37,44,48
"335",2,135,0,1,0,0,0,760,700,"SU",0,0.63,0.54,0.63,63,54,63,37,46,37
"336",2,136,0,0,0,1,10,770,1000,"SU",1,0.64,0.61,0.69,64,61,69,36,39,31
"337",2,137,0,1,1,1,10,780,1266,"SU",1,0.62,0.58,0.61,62,58,61,38,42,39
"338",2,138,0,1,1,1,10,790,1083,"SU",1,0.64,0.62,0.62,64,62,62,36,38,38
"339",2,139,0,1,1,1,10,800,1350,"SU",1,0.66,0.52,0.64,66,52,64,34,48,36
"340",2,140,0,1,1,1,10,810,1016,"SU",1,0.68,0.65,0.59,68,65,59,32,35,41
"341",2,141,0,0,0,1,10,820,1333,"SU",1,0.63,0.54,0.57,63,54,57,37,46,43
"342",2,142,0,1,0,0,0,820,1333,"SU",0,0.57,0.55,0.64,57,55,64,43,45,36
"343",2,143,0,0,0,1,10,830,700,"SU",1,0.52,0.6,0.5,52,60,50,48,40,50
"344",2,144,0,1,1,1,10,840,1166,"SU",1,0.59,0.46,0.64,59,46,64,41,54,36
"345",2,145,0,0,0,1,10,850,933,"SU",1,0.57,0.61,0.58,57,61,58,43,39,42
"346",2,146,0,1,0,0,0,850,1450,"SU",0,0.62,0.59,0.58,62,59,58,38,41,42
"347",2,147,0,1,0,0,0,850,766,"SU",0,0.64,0.65,0.69,64,65,69,36,35,31
"348",2,148,0,1,1,1,10,860,1083,"SU",1,0.59,0.56,0.69,59,56,69,41,44,31
"349",2,149,0,1,1,1,10,870,866,"SU",1,0.59,0.6,0.68,59,60,68,41,40,32
"350",2,150,0,1,0,0,0,870,850,"SU",0,0.6,0.61,0.66,60,61,66,40,39,34
"351",2,151,0,0,1,0,0,870,1250,"SU",0,0.6,0.58,0.58,60,58,58,40,42,42
"352",2,152,0,1,0,0,0,870,800,"SU",0,0.63,0.52,0.65,63,52,65,37,48,35
"353",2,153,0,0,1,0,0,870,1050,"SU",0,0.52,0.46,0.52,52,46,52,48,54,48
"354",2,154,0,0,0,1,10,880,683,"SU",1,0.67,0.51,0.65,67,51,65,33,49,35
"355",2,155,0,0,1,0,0,880,866,"SU",0,0.71,0.57,0.63,71,57,63,29,43,37
"356",2,156,0,0,0,1,10,890,616,"SU",1,0.61,0.54,0.67,61,54,67,39,46,33
"357",2,157,0,1,1,1,10,900,1283,"SU",1,0.59,0.58,0.56,59,58,56,41,42,44
"358",2,158,0,1,1,1,10,910,1100,"SU",1,0.58,0.56,0.57,58,56,57,42,44,43
"359",2,159,0,1,1,1,10,920,1183,"SU",1,0.67,0.59,0.6,67,59,60,33,41,40
"360",2,160,0,0,1,0,0,920,1466,"SU",0,0.62,0.62,0.52,62,62,52,38,38,48
"361",2,161,0,0,1,0,0,920,983,"SU",0,0.6,0.51,0.58,60,51,58,40,49,42
"362",2,162,0,1,1,1,10,930,983,"SU",1,0.55,0.53,0.57,55,53,57,45,47,43
"363",2,163,0,0,1,0,0,930,1783,"SU",0,0.62,0.66,0.59,62,66,59,38,34,41
"364",2,164,0,1,0,0,0,930,966,"SU",0,0.59,0.63,0.55,59,63,55,41,37,45
"365",2,165,0,0,0,1,10,940,816,"SU",1,0.61,0.63,0.6,61,63,60,39,37,40
"366",2,166,0,0,1,0,0,940,883,"SU",0,0.68,0.56,0.55,68,56,55,32,44,45
"367",2,167,0,0,0,1,10,950,766,"SU",1,0.64,0.58,0.61,64,58,61,36,42,39
"368",2,168,0,0,0,1,10,960,1583,"SU",1,0.64,0.53,0.64,64,53,64,36,47,36
"369",2,169,0,1,1,1,10,970,1383,"SU",1,0.51,0.66,0.6,51,66,60,49,34,40
"370",2,170,0,0,1,0,0,970,1500,"SU",0,0.66,0.48,0.67,66,48,67,34,52,33
"371",2,171,0,1,0,0,0,970,700,"SU",0,0.43,0.63,0.6,43,63,60,57,37,40
"372",2,172,0,1,1,1,10,980,1233,"SU",1,0.69,0.62,0.65,69,62,65,31,38,35
"373",2,173,0,0,1,0,0,980,1950,"SU",0,0.66,0.61,0.63,66,61,63,34,39,37
"374",2,174,0,1,1,1,10,990,950,"SU",1,0.57,0.5,0.55,57,50,55,43,50,45
"375",2,175,0,0,0,1,10,1000,1733,"SU",1,0.64,0.6,0.62,64,60,62,36,40,38
"376",2,176,0,1,1,1,10,1010,833,"SU",1,0.56,0.54,0.59,56,54,59,44,46,41
"377",2,177,0,1,1,1,10,1020,1150,"SU",1,0.55,0.61,0.66,55,61,66,45,39,34
"378",2,178,0,0,0,1,10,1030,733,"SU",1,0.59,0.55,0.57,59,55,57,41,45,43
"379",2,179,0,0,0,1,10,1040,1183,"SU",1,0.63,0.63,0.58,63,63,58,37,37,42
"380",2,180,0,1,1,1,10,1050,1066,"SU",1,0.53,0.65,0.59,53,65,59,47,35,41
"381",2,181,0,0,0,1,10,1060,933,"SU",1,0.64,0.62,0.55,64,62,55,36,38,45
"382",2,182,0,1,1,1,10,1070,983,"SU",1,0.69,0.66,0.5,69,66,50,31,34,50
"383",2,183,0,1,1,1,10,1080,1050,"SU",1,0.59,0.57,0.65,59,57,65,41,43,35
"384",2,184,0,1,1,1,10,1090,716,"SU",1,0.65,0.56,0.66,65,56,66,35,44,34
"385",2,185,0,0,1,0,0,1090,1066,"SU",0,0.6,0.6,0.51,60,60,51,40,40,49
"386",2,186,0,0,0,1,10,1100,616,"SU",1,0.56,0.64,0.61,56,64,61,44,36,39
"387",2,187,0,1,0,0,0,1100,1000,"SU",0,0.46,0.56,0.52,46,56,52,54,44,48
"388",2,188,0,0,0,1,10,1110,833,"SU",1,0.44,0.58,0.53,44,58,53,56,42,47
"389",2,189,0,1,0,0,0,1110,783,"SU",0,0.56,0.58,0.48,56,58,48,44,42,52
"390",2,190,0,0,0,1,10,1120,650,"SU",1,0.65,0.65,0.63,65,65,63,35,35,37
"391",2,191,0,1,1,1,10,1130,1183,"SU",1,0.66,0.57,0.57,66,57,57,34,43,43
"392",2,192,0,0,1,0,0,1130,866,"SU",0,0.57,0.57,0.52,57,57,52,43,43,48
"393",2,193,0,0,1,0,0,1130,900,"SU",0,0.63,0.56,0.56,63,56,56,37,44,44
"394",2,194,0,0,0,1,10,1140,816,"SU",1,0.65,0.63,0.58,65,63,58,35,37,42
"395",2,195,0,1,1,1,10,1150,1400,"SU",1,0.65,0.51,0.58,65,51,58,35,49,42
"396",2,196,0,0,1,0,0,1150,1916,"SU",0,0.65,0.55,0.55,65,55,55,35,45,45
"397",2,197,0,1,1,1,10,1160,766,"SU",1,0.59,0.54,0.59,59,54,59,41,46,41
"398",2,198,0,0,0,1,10,1170,950,"SU",1,0.61,0.63,0.74,61,63,74,39,37,26
"399",2,199,0,0,0,1,10,1180,1850,"SU",1,0.66,0.53,0.55,66,53,55,34,47,45
"400",2,200,0,1,0,0,0,1180,1100,"SU",0,0.58,0.56,0.47,58,56,47,42,44,53
"401",3,1,0,0,1,0,0,0,4568,"SU",0,0.53,0.52,0.5,53,52,50,47,48,50
"402",3,2,0,1,1,1,10,10,1349,"SU",1,0.58,0.45,0.47,58,45,47,42,55,53
"403",3,3,0,0,1,0,0,10,816,"SU",0,0.62,0.59,0.56,62,59,56,38,41,44
"404",3,4,0,0,0,1,10,20,2768,"SU",1,0.74,0.56,0.63,74,56,63,26,44,37
"405",3,5,0,1,1,1,10,30,2381,"SU",1,0.61,0.54,0.58,61,54,58,39,46,42
"406",3,6,0,0,0,1,10,40,1633,"SU",1,0.68,0.59,0.69,68,59,69,32,41,31
"407",3,7,0,0,0,1,10,50,1266,"SU",1,0.78,0.64,0.73,78,64,73,22,36,27
"408",3,8,0,0,0,1,10,60,883,"SU",1,0.7,0.75,0.77,70,75,77,30,25,23
"409",3,9,0,0,0,1,10,70,500,"SU",1,0.77,0.64,0.77,77,64,77,23,36,23
"410",3,10,0,0,0,1,10,80,516,"SU",1,0.82,0.78,0.78,82,78,78,18,22,22
"411",3,11,0,0,0,1,10,90,550,"SU",1,0.78,0.57,0.8,78,57,80,22,43,20
"412",3,12,0,0,0,1,10,100,633,"SU",1,0.79,0.69,0.76,79,69,76,21,31,24
"413",3,13,0,1,1,1,10,110,966,"SU",1,0.72,0.69,0.7,72,69,70,28,31,30
"414",3,14,0,0,0,1,10,120,450,"SU",1,0.87,0.79,0.79,87,79,79,13,21,21
"415",3,15,0,1,1,1,10,130,816,"SU",1,0.76,0.65,0.74,76,65,74,24,35,26
"416",3,16,0,1,1,1,10,140,783,"SU",1,0.71,0.7,0.74,71,70,74,29,30,26
"417",3,17,0,1,1,1,10,150,750,"SU",1,0.77,0.62,0.76,77,62,76,23,38,24
"418",3,18,0,0,0,1,10,160,650,"SU",1,0.83,0.76,0.82,83,76,82,17,24,18
"419",3,19,0,1,1,1,10,170,583,"SU",1,0.75,0.75,0.64,75,75,64,25,25,36
"420",3,20,0,0,1,0,0,170,2650,"SU",0,0.8,0.74,0.8,80,74,80,20,26,20
"421",3,21,0,1,1,1,10,180,733,"SU",1,0.73,0.68,0.74,73,68,74,27,32,26
"422",3,22,0,1,1,1,10,190,716,"SU",1,0.81,0.67,0.72,81,67,72,19,33,28
"423",3,23,0,1,1,1,10,200,600,"SU",1,0.73,0.7,0.79,73,70,79,27,30,21
"424",3,24,0,0,0,1,10,210,733,"SU",1,0.75,0.76,0.65,75,76,65,25,24,35
"425",3,25,0,1,1,1,10,220,1116,"SU",1,0.84,0.73,0.75,84,73,75,16,27,25
"426",3,26,0,0,1,0,0,220,1567,"SU",0,0.74,0.66,0.73,74,66,73,26,34,27
"427",3,27,0,1,1,1,10,230,750,"SU",1,0.79,0.64,0.81,79,64,81,21,36,19
"428",3,28,0,1,1,1,10,240,700,"SU",1,0.78,0.71,0.79,78,71,79,22,29,21
"429",3,29,0,0,0,1,10,250,566,"SU",1,0.75,0.75,0.77,75,75,77,25,25,23
"430",3,30,0,0,0,1,10,260,516,"SU",1,0.76,0.75,0.73,76,75,73,24,25,27
"431",3,31,0,1,1,1,10,270,783,"SU",1,0.76,0.78,0.84,76,78,84,24,22,16
"432",3,32,0,1,1,1,10,280,433,"SU",1,0.8,0.75,0.81,80,75,81,20,25,19
"433",3,33,0,1,1,1,10,290,566,"SU",1,0.76,0.69,0.77,76,69,77,24,31,23
"434",3,34,0,0,0,1,10,300,700,"SU",1,0.78,0.76,0.78,78,76,78,22,24,22
"435",3,35,0,0,0,1,10,310,500,"SU",1,0.77,0.69,0.75,77,69,75,23,31,25
"436",3,36,0,1,1,1,10,320,666,"SU",1,0.81,0.73,0.72,81,73,72,19,27,28
"437",3,37,0,0,0,1,10,330,1016,"SU",1,0.82,0.71,0.79,82,71,79,18,29,21
"438",3,38,0,1,1,1,10,340,466,"SU",1,0.79,0.74,0.74,79,74,74,21,26,26
"439",3,39,0,1,1,1,10,350,616,"SU",1,0.75,0.74,0.76,75,74,76,25,26,24
"440",3,40,0,0,0,1,10,360,500,"SU",1,0.77,0.77,0.66,77,77,66,23,23,34
"441",3,41,0,1,1,1,10,370,616,"SU",1,0.69,0.73,0.78,69,73,78,31,27,22
"442",3,42,0,1,1,1,10,380,550,"SU",1,0.87,0.71,0.79,87,71,79,13,29,21
"443",3,43,0,1,1,1,10,390,533,"SU",1,0.83,0.78,0.81,83,78,81,17,22,19
"444",3,44,0,0,0,1,10,400,650,"SU",1,0.81,0.75,0.71,81,75,71,19,25,29
"445",3,45,0,1,1,1,10,410,800,"SU",1,0.7,0.77,0.76,70,77,76,30,23,24
"446",3,46,0,1,1,1,10,420,516,"SU",1,0.87,0.82,0.8,87,82,80,13,18,20
"447",3,47,0,0,0,1,10,430,600,"SU",1,0.76,0.64,0.81,76,64,81,24,36,19
"448",3,48,0,1,0,0,0,430,616,"SU",0,0.78,0.76,0.7,78,76,70,22,24,30
"449",3,49,0,1,1,1,10,440,750,"SU",1,0.79,0.76,0.86,79,76,86,21,24,14
"450",3,50,0,0,0,1,10,450,566,"SU",1,0.75,0.7,0.75,75,70,75,25,30,25
"451",3,51,0,1,1,1,10,460,800,"SU",1,0.8,0.7,0.74,80,70,74,20,30,26
"452",3,52,0,1,1,1,10,470,783,"SU",1,0.77,0.77,0.74,77,77,74,23,23,26
"453",3,53,0,0,0,1,10,480,633,"SU",1,0.76,0.71,0.78,76,71,78,24,29,22
"454",3,54,0,0,0,1,10,490,466,"SU",1,0.74,0.76,0.75,74,76,75,26,24,25
"455",3,55,0,1,1,1,10,500,483,"SU",1,0.77,0.71,0.78,77,71,78,23,29,22
"456",3,56,0,0,0,1,10,510,950,"SU",1,0.88,0.81,0.78,88,81,78,12,19,22
"457",3,57,0,0,0,1,10,520,533,"SU",1,0.79,0.73,0.68,79,73,68,21,27,32
"458",3,58,0,1,1,1,10,530,666,"SU",1,0.75,0.72,0.8,75,72,80,25,28,20
"459",3,59,0,0,1,0,0,530,566,"SU",0,0.81,0.69,0.85,81,69,85,19,31,15
"460",3,60,0,1,1,1,10,540,850,"SU",1,0.74,0.73,0.8,74,73,80,26,27,20
"461",3,61,0,0,0,1,10,550,516,"SU",1,0.77,0.73,0.81,77,73,81,23,27,19
"462",3,62,0,0,0,1,10,560,500,"SU",1,0.84,0.7,0.83,84,70,83,16,30,17
"463",3,63,0,1,0,0,0,560,7016,"SU",0,0.8,0.78,0.84,80,78,84,20,22,16
"464",3,64,0,1,1,1,10,570,2933,"SU",1,0.77,0.75,0.86,77,75,86,23,25,14
"465",3,65,0,0,0,1,10,580,1516,"SU",1,0.86,0.71,0.75,86,71,75,14,29,25
"466",3,66,0,0,1,0,0,580,800,"SU",0,0.7,0.75,0.75,70,75,75,30,25,25
"467",3,67,0,1,1,1,10,590,533,"SU",1,0.79,0.74,0.79,79,74,79,21,26,21
"468",3,68,0,1,1,1,10,600,666,"SU",1,0.8,0.7,0.7,80,70,70,20,30,30
"469",3,69,0,0,0,1,10,610,1000,"SU",1,0.75,0.72,0.78,75,72,78,25,28,22
"470",3,70,0,1,1,1,10,620,700,"SU",1,0.82,0.76,0.72,82,76,72,18,24,28
"471",3,71,0,0,1,0,0,620,1033,"SU",0,0.81,0.68,0.79,81,68,79,19,32,21
"472",3,72,0,0,0,1,10,630,650,"SU",1,0.69,0.83,0.79,69,83,79,31,17,21
"473",3,73,0,0,0,1,10,640,433,"SU",1,0.76,0.77,0.76,76,77,76,24,23,24
"474",3,74,0,0,0,1,10,650,516,"SU",1,0.78,0.85,0.73,78,85,73,22,15,27
"475",3,75,0,0,0,1,10,660,550,"SU",1,0.75,0.74,0.82,75,74,82,25,26,18
"476",3,76,0,1,0,0,0,660,1166,"SU",0,0.75,0.7,0.81,75,70,81,25,30,19
"477",3,77,0,0,1,0,0,660,866,"SU",0,0.66,0.83,0.76,66,83,76,34,17,24
"478",3,78,0,1,0,0,0,660,850,"SU",0,0.73,0.72,0.73,73,72,73,27,28,27
"479",3,79,0,1,1,1,10,670,1033,"SU",1,0.7,0.71,0.7,70,71,70,30,29,30
"480",3,80,0,0,1,0,0,670,1050,"SU",0,0.82,0.74,0.79,82,74,79,18,26,21
"481",3,81,0,1,0,0,0,670,1683,"SU",0,0.75,0.78,0.75,75,78,75,25,22,25
"482",3,82,0,1,1,1,10,680,733,"SU",1,0.78,0.7,0.78,78,70,78,22,30,22
"483",3,83,0,0,1,0,0,680,666,"SU",0,0.75,0.79,0.75,75,79,75,25,21,25
"484",3,84,0,1,1,1,10,690,783,"SU",1,0.7,0.78,0.71,70,78,71,30,22,29
"485",3,85,0,1,0,0,0,690,1133,"SU",0,0.83,0.64,0.81,83,64,81,17,36,19
"486",3,86,0,1,1,1,10,700,900,"SU",1,0.75,0.68,0.83,75,68,83,25,32,17
"487",3,87,0,0,0,1,10,710,983,"SU",1,0.76,0.72,0.82,76,72,82,24,28,18
"488",3,88,0,1,1,1,10,720,583,"SU",1,0.83,0.68,0.74,83,68,74,17,32,26
"489",3,89,0,0,0,1,10,730,616,"SU",1,0.78,0.78,0.83,78,78,83,22,22,17
"490",3,90,0,0,0,1,10,740,666,"SU",1,0.78,0.79,0.76,78,79,76,22,21,24
"491",3,91,0,0,0,1,10,750,550,"SU",1,0.79,0.78,0.81,79,78,81,21,22,19
"492",3,92,0,0,0,1,10,760,750,"SU",1,0.75,0.69,0.79,75,69,79,25,31,21
"493",3,93,0,1,0,0,0,760,600,"SU",0,0.74,0.74,0.75,74,74,75,26,26,25
"494",3,94,0,0,0,1,10,770,1050,"SU",1,0.8,0.63,0.69,80,63,69,20,37,31
"495",3,95,0,1,1,1,10,780,816,"SU",1,0.75,0.7,0.76,75,70,76,25,30,24
"496",3,96,0,1,0,0,0,780,1166,"SU",0,0.78,0.68,0.81,78,68,81,22,32,19
"497",3,97,0,1,1,1,10,790,766,"SU",1,0.74,0.78,0.78,74,78,78,26,22,22
"498",3,98,0,1,1,1,10,800,683,"SU",1,0.82,0.83,0.69,82,83,69,18,17,31
"499",3,99,0,0,1,0,0,800,8650,"SU",0,0.7,0.73,0.7,70,73,70,30,27,30
"500",3,100,0,0,1,0,0,800,716,"SU",0,0.73,0.76,0.77,73,76,77,27,24,23
"501",3,101,1,1,0,0,0,800,583,"SU",0,0.18,0.22,0.22,18,22,22,82,78,78
"502",3,102,1,1,1,1,10,810,600,"SU",1,0.33,0.29,0.25,33,29,25,67,71,75
"503",3,103,1,1,0,0,0,810,1250,"SU",0,0.49,0.32,0.29,49,32,29,51,68,71
"504",3,104,1,1,1,1,10,820,1583,"SU",1,0.59,0.4,0.5,59,40,50,41,60,50
"505",3,105,1,1,0,0,0,820,600,"SU",0,0.59,0.4,0.49,59,40,49,41,60,51
"506",3,106,1,0,1,0,0,820,1400,"SU",0,0.22,0.23,0.28,22,23,28,78,77,72
"507",3,107,1,1,0,0,0,820,3983,"SU",0,0.67,0.42,0.65,67,42,65,33,58,35
"508",3,108,1,0,0,1,10,830,2150,"SU",1,0.41,0.33,0.26,41,33,26,59,67,74
"509",3,109,1,1,1,1,10,840,566,"SU",1,0.72,0.32,0.7,72,32,70,28,68,30
"510",3,110,1,1,1,1,10,850,866,"SU",1,0.65,0.39,0.74,65,39,74,35,61,26
"511",3,111,1,0,1,0,0,850,916,"SU",0,0.49,0.32,0.32,49,32,32,51,68,68
"512",3,112,1,1,1,1,10,860,883,"SU",1,0.71,0.55,0.64,71,55,64,29,45,36
"513",3,113,1,0,1,0,0,860,1583,"SU",0,0.65,0.34,0.35,65,34,35,35,66,65
"514",3,114,1,1,1,1,10,870,1866,"SU",1,0.8,0.65,0.65,80,65,65,20,35,35
"515",3,115,1,1,1,1,10,880,816,"SU",1,0.87,0.6,0.72,87,60,72,13,40,28
"516",3,116,1,0,0,1,10,890,1233,"SU",1,0.53,0.43,0.57,53,43,57,47,57,43
"517",3,117,1,1,1,1,10,900,933,"SU",1,0.81,0.59,0.83,81,59,83,19,41,17
"518",3,118,1,0,0,1,10,910,683,"SU",1,0.69,0.49,0.57,69,49,57,31,51,43
"519",3,119,1,1,1,1,10,920,1233,"SU",1,0.77,0.64,0.75,77,64,75,23,36,25
"520",3,120,1,0,0,1,10,930,1533,"SU",1,0.77,0.58,0.58,77,58,58,23,42,42
"521",3,121,1,0,0,1,10,940,1700,"SU",1,0.76,0.69,0.64,76,69,64,24,31,36
"522",3,122,1,1,1,1,10,950,950,"SU",1,0.82,0.74,0.72,82,74,72,18,26,28
"523",3,123,1,1,1,1,10,960,916,"SU",1,0.77,0.69,0.72,77,69,72,23,31,28
"524",3,124,1,1,1,1,10,970,1166,"SU",1,0.76,0.65,0.77,76,65,77,24,35,23
"525",3,125,1,1,1,1,10,980,650,"SU",1,0.77,0.65,0.78,77,65,78,23,35,22
"526",3,126,1,1,1,1,10,990,1066,"SU",1,0.78,0.75,0.8,78,75,80,22,25,20
"527",3,127,1,1,1,1,10,1000,550,"SU",1,0.78,0.73,0.81,78,73,81,22,27,19
"528",3,128,1,0,0,1,10,1010,633,"SU",1,0.74,0.59,0.71,74,59,71,26,41,29
"529",3,129,1,0,0,1,10,1020,716,"SU",1,0.81,0.66,0.76,81,66,76,19,34,24
"530",3,130,1,1,1,1,10,1030,633,"SU",1,0.78,0.68,0.77,78,68,77,22,32,23
"531",3,131,1,1,1,1,10,1040,750,"SU",1,0.79,0.7,0.7,79,70,70,21,30,30
"532",3,132,1,0,0,1,10,1050,916,"SU",1,0.81,0.65,0.71,81,65,71,19,35,29
"533",3,133,1,1,1,1,10,1060,800,"SU",1,0.77,0.73,0.76,77,73,76,23,27,24
"534",3,134,1,1,1,1,10,1070,1316,"SU",1,0.76,0.81,0.79,76,81,79,24,19,21
"535",3,135,1,1,1,1,10,1080,4216,"SU",1,0.84,0.68,0.73,84,68,73,16,32,27
"536",3,136,1,0,0,1,10,1090,900,"SU",1,0.74,0.7,0.67,74,70,67,26,30,33
"537",3,137,1,0,1,0,0,1090,1750,"SU",0,0.75,0.67,0.7,75,67,70,25,33,30
"538",3,138,1,0,0,1,10,1100,1550,"SU",1,0.71,0.75,0.71,71,75,71,29,25,29
"539",3,139,1,0,1,0,0,1100,2416,"SU",0,0.83,0.71,0.69,83,71,69,17,29,31
"540",3,140,1,0,1,0,0,1100,1150,"SU",0,0.74,0.72,0.75,74,72,75,26,28,25
"541",3,141,1,1,0,0,0,1100,733,"SU",0,0.77,0.75,0.81,77,75,81,23,25,19
"542",3,142,1,1,1,1,10,1110,766,"SU",1,0.8,0.72,0.79,80,72,79,20,28,21
"543",3,143,1,0,1,0,0,1110,533,"SU",0,0.79,0.75,0.68,79,75,68,21,25,32
"544",3,144,1,0,0,1,10,1120,766,"SU",1,0.75,0.59,0.63,75,59,63,25,41,37
"545",3,145,1,1,1,1,10,1130,783,"SU",1,0.83,0.74,0.8,83,74,80,17,26,20
"546",3,146,1,0,0,1,10,1140,483,"SU",1,0.8,0.79,0.7,80,79,70,20,21,30
"547",3,147,1,0,0,1,10,1150,866,"SU",1,0.8,0.7,0.69,80,70,69,20,30,31
"548",3,148,1,0,0,1,10,1160,933,"SU",1,0.8,0.74,0.73,80,74,73,20,26,27
"549",3,149,1,0,0,1,10,1170,1466,"SU",1,0.8,0.68,0.72,80,68,72,20,32,28
"550",3,150,1,0,0,1,10,1180,583,"SU",1,0.76,0.71,0.76,76,71,76,24,29,24
"551",3,151,1,0,0,1,10,1190,516,"SU",1,0.73,0.76,0.74,73,76,74,27,24,26
"552",3,152,1,1,1,1,10,1200,1150,"SU",1,0.78,0.7,0.7,78,70,70,22,30,30
"553",3,153,1,1,1,1,10,1210,1033,"SU",1,0.79,0.81,0.74,79,81,74,21,19,26
"554",3,154,1,0,1,0,0,1210,1000,"SU",0,0.77,0.66,0.7,77,66,70,23,34,30
"555",3,155,1,0,1,0,0,1210,983,"SU",0,0.81,0.79,0.77,81,79,77,19,21,23
"556",3,156,1,0,1,0,0,1210,883,"SU",0,0.79,0.67,0.72,79,67,72,21,33,28
"557",3,157,1,0,1,0,0,1210,1333,"SU",0,0.79,0.74,0.83,79,74,83,21,26,17
"558",3,158,1,0,1,0,0,1210,1616,"SU",0,0.8,0.66,0.8,80,66,80,20,34,20
"559",3,159,1,0,1,0,0,1210,516,"SU",0,0.81,0.78,0.7,81,78,70,19,22,30
"560",3,160,1,1,1,1,10,1220,1450,"SU",1,0.76,0.75,0.78,76,75,78,24,25,22
"561",3,161,1,0,1,0,0,1220,2800,"SU",0,0.84,0.75,0.79,84,75,79,16,25,21
"562",3,162,1,1,1,1,10,1230,716,"SU",1,0.79,0.82,0.71,79,82,71,21,18,29
"563",3,163,1,0,0,1,10,1240,1300,"SU",1,0.81,0.73,0.66,81,73,66,19,27,34
"564",3,164,1,1,1,1,10,1250,850,"SU",1,0.82,0.77,0.85,82,77,85,18,23,15
"565",3,165,1,1,0,0,0,1250,1466,"SU",0,0.7,0.72,0.77,70,72,77,30,28,23
"566",3,166,1,1,1,1,10,1260,1300,"SU",1,0.75,0.67,0.73,75,67,73,25,33,27
"567",3,167,1,1,1,1,10,1270,550,"SU",1,0.79,0.66,0.81,79,66,81,21,34,19
"568",3,168,1,0,0,1,10,1280,750,"SU",1,0.84,0.83,0.71,84,83,71,16,17,29
"569",3,169,1,0,0,1,10,1290,933,"SU",1,0.81,0.76,0.79,81,76,79,19,24,21
"570",3,170,1,1,1,1,10,1300,3683,"SU",1,0.76,0.7,0.77,76,70,77,24,30,23
"571",3,171,1,1,0,0,0,1300,1450,"SU",0,0.77,0.75,0.77,77,75,77,23,25,23
"572",3,172,1,1,1,1,10,1310,650,"SU",1,0.82,0.74,0.73,82,74,73,18,26,27
"573",3,173,1,0,0,1,10,1320,650,"SU",1,0.76,0.69,0.7,76,69,70,24,31,30
"574",3,174,1,1,0,0,0,1320,3133,"SU",0,0.75,0.74,0.76,75,74,76,25,26,24
"575",3,175,1,0,1,0,0,1320,1666,"SU",0,0.76,0.7,0.85,76,70,85,24,30,15
"576",3,176,1,1,0,0,0,1320,783,"SU",0,0.8,0.69,0.82,80,69,82,20,31,18
"577",3,177,1,0,1,0,0,1320,616,"SU",0,0.81,0.72,0.77,81,72,77,19,28,23
"578",3,178,1,1,1,1,10,1330,983,"SU",1,0.74,0.7,0.78,74,70,78,26,30,22
"579",3,179,1,1,1,1,10,1340,1166,"SU",1,0.72,0.75,0.7,72,75,70,28,25,30
"580",3,180,1,1,1,1,10,1350,633,"SU",1,0.78,0.76,0.72,78,76,72,22,24,28
"581",3,181,1,0,1,0,0,1350,533,"SU",0,0.79,0.69,0.84,79,69,84,21,31,16
"582",3,182,1,0,0,1,10,1360,700,"SU",1,0.77,0.76,0.74,77,76,74,23,24,26
"583",3,183,1,0,0,1,10,1370,766,"SU",1,0.84,0.73,0.75,84,73,75,16,27,25
"584",3,184,1,1,1,1,10,1380,866,"SU",1,0.77,0.64,0.7,77,64,70,23,36,30
"585",3,185,1,1,1,1,10,1390,1366,"SU",1,0.79,0.78,0.77,79,78,77,21,22,23
"586",3,186,1,0,0,1,10,1400,1716,"SU",1,0.83,0.69,0.68,83,69,68,17,31,32
"587",3,187,1,0,0,1,10,1410,816,"SU",1,0.83,0.63,0.8,83,63,80,17,37,20
"588",3,188,1,0,0,1,10,1420,850,"SU",1,0.83,0.75,0.71,83,75,71,17,25,29
"589",3,189,1,1,1,1,10,1430,783,"SU",1,0.75,0.76,0.69,75,76,69,25,24,31
"590",3,190,1,0,0,1,10,1440,683,"SU",1,0.8,0.74,0.69,80,74,69,20,26,31
"591",3,191,1,0,1,0,0,1440,1250,"SU",0,0.79,0.76,0.75,79,76,75,21,24,25
"592",3,192,1,1,1,1,10,1450,1083,"SU",1,0.8,0.81,0.81,80,81,81,20,19,19
"593",3,193,1,0,0,1,10,1460,633,"SU",1,0.82,0.72,0.78,82,72,78,18,28,22
"594",3,194,1,1,1,1,10,1470,1666,"SU",1,0.8,0.72,0.76,80,72,76,20,28,24
"595",3,195,1,1,1,1,10,1480,1916,"SU",1,0.8,0.78,0.74,80,78,74,20,22,26
"596",3,196,1,1,1,1,10,1490,1216,"SU",1,0.73,0.66,0.81,73,66,81,27,34,19
"597",3,197,1,0,0,1,10,1500,850,"SU",1,0.82,0.76,0.77,82,76,77,18,24,23
"598",3,198,1,0,0,1,10,1510,666,"SU",1,0.78,0.74,0.77,78,74,77,22,26,23
"599",3,199,1,0,1,0,0,1510,983,"SU",0,0.76,0.72,0.74,76,72,74,24,28,26
"600",3,200,1,0,1,0,0,1510,1116,"SU",0,0.71,0.77,0.78,71,77,78,29,23,22
"601",4,1,0,0,0,1,10,10,3602,"SU",1,0.44,0.53,0.44,44,53,44,56,47,56
"602",4,2,0,0,0,1,10,20,1449,"SU",1,0.47,0.54,0.58,47,54,58,53,46,42
"603",4,3,0,1,1,1,10,30,1867,"SU",1,0.51,0.38,0.5,51,38,50,49,62,50
"604",4,4,0,0,1,0,0,30,2399,"SU",0,0.54,0.52,0.56,54,52,56,46,48,44
"605",4,5,0,0,1,0,0,30,4181,"SU",0,0.59,0.53,0.63,59,53,63,41,47,37
"606",4,6,0,1,0,0,0,30,2466,"SU",0,0.53,0.37,0.48,53,37,48,47,63,52
"607",4,7,0,0,1,0,0,30,5200,"SU",0,0.45,0.57,0.62,45,57,62,55,43,38
"608",4,8,0,1,0,0,0,30,1400,"SU",0,0.5,0.43,0.6,50,43,60,50,57,40
"609",4,9,0,1,0,0,0,30,4800,"SU",0,0.49,0.47,0.58,49,47,58,51,53,42
"610",4,10,0,1,1,1,10,40,4700,"SU",1,0.56,0.47,0.51,56,47,51,44,53,49
"611",4,11,0,0,1,0,0,40,1716,"SU",0,0.49,0.46,0.63,49,46,63,51,54,37
"612",4,12,0,1,0,0,0,40,833,"SU",0,0.36,0.56,0.61,36,56,61,64,44,39
"613",4,13,0,1,0,0,0,40,3750,"SU",0,0.61,0.54,0.68,61,54,68,39,46,32
"614",4,14,0,0,1,0,0,40,2983,"SU",0,0.61,0.38,0.64,61,38,64,39,62,36
"615",4,15,0,0,0,1,10,50,733,"SU",1,0.54,0.45,0.63,54,45,63,46,55,37
"616",4,16,0,0,0,1,10,60,800,"SU",1,0.59,0.61,0.61,59,61,61,41,39,39
"617",4,17,0,1,0,0,0,60,816,"SU",0,0.6,0.5,0.55,60,50,55,40,50,45
"618",4,18,0,0,1,0,0,60,1116,"SU",0,0.55,0.55,0.67,55,55,67,45,45,33
"619",4,19,0,1,0,0,0,60,933,"SU",0,0.5,0.51,0.5,50,51,50,50,49,50
"620",4,20,0,0,1,0,0,60,1950,"SU",0,0.61,0.49,0.63,61,49,63,39,51,37
"621",4,21,0,0,0,1,10,70,1783,"SU",1,0.5,0.51,0.64,50,51,64,50,49,36
"622",4,22,0,0,0,1,10,80,716,"SU",1,0.56,0.59,0.62,56,59,62,44,41,38
"623",4,23,0,0,0,1,10,90,1100,"SU",1,0.56,0.53,0.61,56,53,61,44,47,39
"624",4,24,0,1,0,0,0,90,966,"SU",0,0.44,0.52,0.58,44,52,58,56,48,42
"625",4,25,0,0,1,0,0,90,1400,"SU",0,0.47,0.58,0.6,47,58,60,53,42,40
"626",4,26,0,0,0,1,10,100,5633,"SU",1,0.49,0.6,0.68,49,60,68,51,40,32
"627",4,27,0,1,0,0,0,100,2300,"SU",0,0.47,0.46,0.59,47,46,59,53,54,41
"628",4,28,0,1,1,1,10,110,1866,"SU",1,0.48,0.44,0.64,48,44,64,52,56,36
"629",4,29,0,1,1,1,10,120,683,"SU",1,0.43,0.56,0.56,43,56,56,57,44,44
"630",4,30,0,0,1,0,0,120,600,"SU",0,0.56,0.55,0.55,56,55,55,44,45,45
"631",4,31,0,0,0,1,10,130,1450,"SU",1,0.52,0.6,0.67,52,60,67,48,40,33
"632",4,32,0,0,0,1,10,140,900,"SU",1,0.59,0.5,0.59,59,50,59,41,50,41
"633",4,33,0,1,1,1,10,150,2616,"SU",1,0.54,0.64,0.55,54,64,55,46,36,45
"634",4,34,0,0,0,1,10,160,2150,"SU",1,0.51,0.62,0.65,51,62,65,49,38,35
"635",4,35,0,1,1,1,10,170,4416,"SU",1,0.52,0.48,0.62,52,48,62,48,52,38
"636",4,36,0,0,0,1,10,180,1250,"SU",1,0.58,0.62,0.57,58,62,57,42,38,43
"637",4,37,0,1,1,1,10,190,1100,"SU",1,0.51,0.52,0.51,51,52,51,49,48,49
"638",4,38,0,1,1,1,10,200,1400,"SU",1,0.55,0.5,0.58,55,50,58,45,50,42
"639",4,39,0,0,1,0,0,200,1333,"SU",0,0.55,0.54,0.59,55,54,59,45,46,41
"640",4,40,0,1,1,1,10,210,1083,"SU",1,0.54,0.48,0.56,54,48,56,46,52,44
"641",4,41,0,0,0,1,10,220,2666,"SU",1,0.54,0.59,0.59,54,59,59,46,41,41
"642",4,42,0,1,1,1,10,230,2250,"SU",1,0.47,0.49,0.52,47,49,52,53,51,48
"643",4,43,0,1,0,0,0,230,3850,"SU",0,0.56,0.51,0.62,56,51,62,44,49,38
"644",4,44,0,0,1,0,0,230,1016,"SU",0,0.58,0.47,0.65,58,47,65,42,53,35
"645",4,45,0,0,0,1,10,240,1383,"SU",1,0.57,0.42,0.58,57,42,58,43,58,42
"646",4,46,0,0,1,0,0,240,1233,"SU",0,0.54,0.58,0.63,54,58,63,46,42,37
"647",4,47,0,1,1,1,10,250,4633,"SU",1,0.53,0.51,0.61,53,51,61,47,49,39
"648",4,48,0,1,0,0,0,250,2016,"SU",0,0.4,0.49,0.71,40,49,71,60,51,29
"649",4,49,0,1,0,0,0,250,3300,"SU",0,0.48,0.6,0.51,48,60,51,52,40,49
"650",4,50,0,0,0,1,10,260,866,"SU",1,0.59,0.56,0.59,59,56,59,41,44,41
"651",4,51,0,1,0,0,0,260,750,"SU",0,0.47,0.6,0.59,47,60,59,53,40,41
"652",4,52,0,1,1,1,10,270,5633,"SU",1,0.55,0.53,0.57,55,53,57,45,47,43
"653",4,53,0,0,1,0,0,270,1350,"SU",0,0.63,0.53,0.69,63,53,69,37,47,31
"654",4,54,0,1,1,1,10,280,1433,"SU",1,0.58,0.53,0.51,58,53,51,42,47,49
"655",4,55,0,1,0,0,0,280,966,"SU",0,0.64,0.63,0.55,64,63,55,36,37,45
"656",4,56,0,0,1,0,0,280,1366,"SU",0,0.55,0.56,0.49,55,56,49,45,44,51
"657",4,57,0,1,0,0,0,280,1516,"SU",0,0.68,0.56,0.55,68,56,55,32,44,45
"658",4,58,0,1,1,1,10,290,2983,"SU",1,0.57,0.6,0.58,57,60,58,43,40,42
"659",4,59,0,1,1,1,10,300,2000,"SU",1,0.58,0.49,0.68,58,49,68,42,51,32
"660",4,60,0,0,0,1,10,310,2000,"SU",1,0.62,0.58,0.66,62,58,66,38,42,34
"661",4,61,0,1,1,1,10,320,1700,"SU",1,0.59,0.54,0.62,59,54,62,41,46,38
"662",4,62,0,0,1,0,0,320,6250,"SU",0,0.62,0.53,0.56,62,53,56,38,47,44
"663",4,63,0,1,1,1,10,330,1750,"SU",1,0.51,0.59,0.56,51,59,56,49,41,44
"664",4,64,0,0,0,1,10,340,5066,"SU",1,0.58,0.54,0.61,58,54,61,42,46,39
"665",4,65,0,0,0,1,10,350,1500,"SU",1,0.64,0.49,0.61,64,49,61,36,51,39
"666",4,66,0,1,0,0,0,350,2166,"SU",0,0.56,0.57,0.66,56,57,66,44,43,34
"667",4,67,0,0,0,1,10,360,1266,"SU",1,0.48,0.53,0.64,48,53,64,52,47,36
"668",4,68,0,1,1,1,10,370,2700,"SU",1,0.54,0.66,0.52,54,66,52,46,34,48
"669",4,69,0,1,1,1,10,380,833,"SU",1,0.64,0.53,0.64,64,53,64,36,47,36
"670",4,70,0,0,0,1,10,390,983,"SU",1,0.53,0.48,0.51,53,48,51,47,52,49
"671",4,71,0,1,1,1,10,400,1400,"SU",1,0.58,0.49,0.57,58,49,57,42,51,43
"672",4,72,0,1,1,1,10,410,2066,"SU",1,0.6,0.55,0.68,60,55,68,40,45,32
"673",4,73,0,1,0,0,0,410,783,"SU",0,0.58,0.52,0.64,58,52,64,42,48,36
"674",4,74,0,1,1,1,10,420,2433,"SU",1,0.54,0.65,0.54,54,65,54,46,35,46
"675",4,75,0,1,0,0,0,420,866,"SU",0,0.49,0.57,0.65,49,57,65,51,43,35
"676",4,76,0,0,1,0,0,420,683,"SU",0,0.5,0.61,0.58,50,61,58,50,39,42
"677",4,77,0,0,0,1,10,430,900,"SU",1,0.51,0.58,0.55,51,58,55,49,42,45
"678",4,78,0,0,0,1,10,440,1900,"SU",1,0.55,0.48,0.61,55,48,61,45,52,39
"679",4,79,0,1,0,0,0,440,5033,"SU",0,0.59,0.58,0.58,59,58,58,41,42,42
"680",4,80,0,1,0,0,0,440,1583,"SU",0,0.64,0.57,0.55,64,57,55,36,43,45
"681",4,81,0,1,1,1,10,450,616,"SU",1,0.53,0.53,0.63,53,53,63,47,47,37
"682",4,82,0,0,1,0,0,450,666,"SU",0,0.53,0.57,0.54,53,57,54,47,43,46
"683",4,83,0,0,1,0,0,450,916,"SU",0,0.63,0.51,0.62,63,51,62,37,49,38
"684",4,84,0,0,0,1,10,460,966,"SU",1,0.55,0.47,0.7,55,47,70,45,53,30
"685",4,85,0,1,1,1,10,470,1366,"SU",1,0.54,0.58,0.54,54,58,54,46,42,46
"686",4,86,0,0,0,1,10,480,783,"SU",1,0.51,0.57,0.6,51,57,60,49,43,40
"687",4,87,0,0,1,0,0,480,2016,"SU",0,0.49,0.61,0.6,49,61,60,51,39,40
"688",4,88,0,0,1,0,0,480,583,"SU",0,0.6,0.54,0.59,60,54,59,40,46,41
"689",4,89,0,1,0,0,0,480,2516,"SU",0,0.61,0.57,0.48,61,57,48,39,43,52
"690",4,90,0,1,1,1,10,490,3216,"SU",1,0.52,0.48,0.6,52,48,60,48,52,40
"691",4,91,0,0,0,1,10,500,1116,"SU",1,0.57,0.56,0.61,57,56,61,43,44,39
"692",4,92,0,1,1,1,10,510,2283,"SU",1,0.68,0.58,0.58,68,58,58,32,42,42
"693",4,93,0,0,0,1,10,520,3183,"SU",1,0.57,0.53,0.62,57,53,62,43,47,38
"694",4,94,0,0,0,1,10,530,3783,"SU",1,0.59,0.58,0.5,59,58,50,41,42,50
"695",4,95,0,0,0,1,10,540,2700,"SU",1,0.55,0.55,0.64,55,55,64,45,45,36
"696",4,96,0,1,1,1,10,550,1483,"SU",1,0.62,0.6,0.56,62,60,56,38,40,44
"697",4,97,0,1,0,0,0,550,1733,"SU",0,0.59,0.6,0.59,59,60,59,41,40,41
"698",4,98,0,0,0,1,10,560,1283,"SU",1,0.57,0.57,0.69,57,57,69,43,43,31
"699",4,99,0,1,1,1,10,570,1433,"SU",1,0.57,0.56,0.53,57,56,53,43,44,47
"700",4,100,0,0,0,1,10,580,2050,"SU",1,0.68,0.56,0.57,68,56,57,32,44,43
"701",4,101,1,0,0,1,10,590,2500,"SU",1,0.41,0.38,0.42,41,38,42,59,62,58
"702",4,102,1,1,0,0,0,590,1667,"SU",0,0.39,0.41,0.42,39,41,42,61,59,58
"703",4,103,1,1,0,0,0,590,3733,"SU",0,0.45,0.4,0.55,45,40,55,55,60,45
"704",4,104,1,1,1,1,10,600,1733,"SU",1,0.36,0.48,0.52,36,48,52,64,52,48
"705",4,105,1,0,1,0,0,600,3183,"SU",0,0.5,0.44,0.34,50,44,34,50,56,66
"706",4,106,1,1,1,1,10,610,2666,"SU",1,0.37,0.44,0.4,37,44,40,63,56,60
"707",4,107,1,1,0,0,0,610,1483,"SU",0,0.37,0.56,0.55,37,56,55,63,44,45
"708",4,108,1,0,1,0,0,610,1033,"SU",0,0.33,0.47,0.49,33,47,49,67,53,51
"709",4,109,1,0,0,1,10,620,900,"SU",1,0.43,0.48,0.42,43,48,42,57,52,58
"710",4,110,1,1,1,1,10,630,2000,"SU",1,0.48,0.57,0.45,48,57,45,52,43,55
"711",4,111,1,0,0,1,10,640,1400,"SU",1,0.43,0.44,0.53,43,44,53,57,56,47
"712",4,112,1,1,1,1,10,650,3883,"SU",1,0.41,0.52,0.5,41,52,50,59,48,50
"713",4,113,1,1,1,1,10,660,1383,"SU",1,0.43,0.5,0.49,43,50,49,57,50,51
"714",4,114,1,0,0,1,10,670,916,"SU",1,0.38,0.48,0.45,38,48,45,62,52,55
"715",4,115,1,0,0,1,10,680,2150,"SU",1,0.37,0.4,0.39,37,40,39,63,60,61
"716",4,116,1,0,0,1,10,690,833,"SU",1,0.47,0.5,0.43,47,50,43,53,50,57
"717",4,117,1,0,0,1,10,700,766,"SU",1,0.39,0.35,0.42,39,35,42,61,65,58
"718",4,118,1,1,1,1,10,710,883,"SU",1,0.41,0.48,0.43,41,48,43,59,52,57
"719",4,119,1,1,1,1,10,720,1633,"SU",1,0.5,0.38,0.56,50,38,56,50,62,44
"720",4,120,1,1,1,1,10,730,1616,"SU",1,0.4,0.55,0.47,40,55,47,60,45,53
"721",4,121,1,1,1,1,10,740,1916,"SU",1,0.41,0.52,0.42,41,52,42,59,48,58
"722",4,122,1,1,0,0,0,740,833,"SU",0,0.45,0.43,0.52,45,43,52,55,57,48
"723",4,123,1,1,0,0,0,740,733,"SU",0,0.43,0.48,0.61,43,48,61,57,52,39
"724",4,124,1,1,0,0,0,740,2016,"SU",0,0.52,0.5,0.65,52,50,65,48,50,35
"725",4,125,1,1,0,0,0,740,1683,"SU",0,0.41,0.37,0.57,41,37,57,59,63,43
"726",4,126,1,0,1,0,0,740,916,"SU",0,0.39,0.39,0.48,39,39,48,61,61,52
"727",4,127,1,0,0,1,10,750,1966,"SU",1,0.48,0.32,0.49,48,32,49,52,68,51
"728",4,128,1,1,0,0,0,750,1633,"SU",0,0.46,0.5,0.51,46,50,51,54,50,49
"729",4,129,1,1,0,0,0,750,2183,"SU",0,0.56,0.53,0.52,56,53,52,44,47,48
"730",4,130,1,0,1,0,0,750,733,"SU",0,0.47,0.44,0.51,47,44,51,53,56,49
"731",4,131,1,1,0,0,0,750,1583,"SU",0,0.39,0.38,0.48,39,38,48,61,62,52
"732",4,132,1,0,1,0,0,750,3283,"SU",0,0.4,0.38,0.47,40,38,47,60,62,53
"733",4,133,1,0,1,0,0,750,1383,"SU",0,0.44,0.5,0.42,44,50,42,56,50,58
"734",4,134,1,1,0,0,0,750,10250,"SU",0,0.41,0.44,0.54,41,44,54,59,56,46
"735",4,135,1,0,0,1,10,760,2466,"SU",1,0.49,0.53,0.5,49,53,50,51,47,50
"736",4,136,1,1,0,0,0,760,933,"SU",0,0.33,0.43,0.57,33,43,57,67,57,43
"737",4,137,1,0,1,0,0,760,600,"SU",0,0.46,0.5,0.5,46,50,50,54,50,50
"738",4,138,1,1,1,1,10,770,2850,"SU",1,0.48,0.48,0.51,48,48,51,52,52,49
"739",4,139,1,1,0,0,0,770,800,"SU",0,0.48,0.38,0.51,48,38,51,52,62,49
"740",4,140,1,1,1,1,10,780,1233,"SU",1,0.46,0.46,0.46,46,46,46,54,54,54
"741",4,141,1,0,1,0,0,780,833,"SU",0,0.47,0.45,0.33,47,45,33,53,55,67
"742",4,142,1,0,1,0,0,780,1166,"SU",0,0.46,0.42,0.44,46,42,44,54,58,56
"743",4,143,1,1,0,0,0,780,950,"SU",0,0.37,0.48,0.44,37,48,44,63,52,56
"744",4,144,1,1,1,1,10,790,4616,"SU",1,0.32,0.49,0.53,32,49,53,68,51,47
"745",4,145,1,1,1,1,10,800,4583,"SU",1,0.48,0.45,0.5,48,45,50,52,55,50
"746",4,146,1,0,0,1,10,810,3233,"SU",1,0.37,0.44,0.48,37,44,48,63,56,52
"747",4,147,1,1,0,0,0,810,1450,"SU",0,0.47,0.51,0.6,47,51,60,53,49,40
"748",4,148,1,1,0,0,0,810,733,"SU",0,0.48,0.45,0.45,48,45,45,52,55,55
"749",4,149,1,0,1,0,0,810,1000,"SU",0,0.41,0.44,0.46,41,44,46,59,56,54
"750",4,150,1,1,0,0,0,810,4733,"SU",0,0.47,0.44,0.52,47,44,52,53,56,48
"751",4,151,1,0,1,0,0,810,4433,"SU",0,0.4,0.53,0.44,40,53,44,60,47,56
"752",4,152,1,1,1,1,10,820,1933,"SU",1,0.47,0.4,0.53,47,40,53,53,60,47
"753",4,153,1,0,1,0,0,820,1666,"SU",0,0.59,0.46,0.52,59,46,52,41,54,48
"754",4,154,1,1,0,0,0,820,1916,"SU",0,0.48,0.44,0.53,48,44,53,52,56,47
"755",4,155,1,1,0,0,0,820,3983,"SU",0,0.53,0.48,0.53,53,48,53,47,52,47
"756",4,156,1,0,1,0,0,820,650,"SU",0,0.51,0.49,0.43,51,49,43,49,51,57
"757",4,157,1,1,0,0,0,820,1533,"SU",0,0.45,0.47,0.57,45,47,57,55,53,43
"758",4,158,1,1,1,1,10,830,2083,"SU",1,0.46,0.54,0.55,46,54,55,54,46,45
"759",4,159,1,1,1,1,10,840,1900,"SU",1,0.46,0.48,0.52,46,48,52,54,52,48
"760",4,160,1,0,0,1,10,850,2050,"SU",1,0.44,0.55,0.52,44,55,52,56,45,48
"761",4,161,1,1,0,0,0,850,900,"SU",0,0.52,0.38,0.58,52,38,58,48,62,42
"762",4,162,1,0,0,1,10,860,2266,"SU",1,0.44,0.4,0.56,44,40,56,56,60,44
"763",4,163,1,1,0,0,0,860,716,"SU",0,0.45,0.42,0.62,45,42,62,55,58,38
"764",4,164,1,0,0,1,10,870,3850,"SU",1,0.45,0.5,0.62,45,50,62,55,50,38
"765",4,165,1,0,1,0,0,870,1050,"SU",0,0.5,0.46,0.5,50,46,50,50,54,50
"766",4,166,1,0,0,1,10,880,1216,"SU",1,0.46,0.55,0.53,46,55,53,54,45,47
"767",4,167,1,0,1,0,0,880,2666,"SU",0,0.47,0.4,0.46,47,40,46,53,60,54
"768",4,168,1,1,0,0,0,880,1550,"SU",0,0.43,0.47,0.55,43,47,55,57,53,45
"769",4,169,1,0,1,0,0,880,4933,"SU",0,0.47,0.48,0.59,47,48,59,53,52,41
"770",4,170,1,0,1,0,0,880,6866,"SU",0,0.65,0.4,0.46,65,40,46,35,60,54
"771",4,171,1,1,0,0,0,880,3600,"SU",0,0.45,0.44,0.58,45,44,58,55,56,42
"772",4,172,1,1,1,1,10,890,1800,"SU",1,0.42,0.43,0.47,42,43,47,58,57,53
"773",4,173,1,0,0,1,10,900,1866,"SU",1,0.51,0.53,0.52,51,53,52,49,47,48
"774",4,174,1,1,0,0,0,900,1283,"SU",0,0.5,0.41,0.57,50,41,57,50,59,43
"775",4,175,1,0,0,1,10,910,633,"SU",1,0.42,0.45,0.51,42,45,51,58,55,49
"776",4,176,1,0,0,1,10,920,1583,"SU",1,0.44,0.45,0.5,44,45,50,56,55,50
"777",4,177,1,1,1,1,10,930,1266,"SU",1,0.44,0.4,0.49,44,40,49,56,60,51
"778",4,178,1,0,0,1,10,940,1916,"SU",1,0.53,0.44,0.56,53,44,56,47,56,44
"779",4,179,1,0,1,0,0,940,2866,"SU",0,0.46,0.44,0.54,46,44,54,54,56,46
"780",4,180,1,1,0,0,0,940,1433,"SU",0,0.43,0.46,0.55,43,46,55,57,54,45
"781",4,181,1,0,0,1,10,950,4233,"SU",1,0.4,0.45,0.44,40,45,44,60,55,56
"782",4,182,1,1,1,1,10,960,1050,"SU",1,0.56,0.45,0.57,56,45,57,44,55,43
"783",4,183,1,0,0,1,10,970,2850,"SU",1,0.43,0.41,0.53,43,41,53,57,59,47
"784",4,184,1,0,1,0,0,970,2250,"SU",0,0.43,0.47,0.66,43,47,66,57,53,34
"785",4,185,1,1,1,1,10,980,1900,"SU",1,0.51,0.5,0.41,51,50,41,49,50,59
"786",4,186,1,0,1,0,0,980,900,"SU",0,0.5,0.52,0.55,50,52,55,50,48,45
"787",4,187,1,1,0,0,0,980,1717,"SU",0,0.48,0.41,0.54,48,41,54,52,59,46
"788",4,188,1,1,0,0,0,980,1333,"SU",0,0.44,0.47,0.5,44,47,50,56,53,50
"789",4,189,1,0,1,0,0,980,2666,"SU",0,0.51,0.41,0.47,51,41,47,49,59,53
"790",4,190,1,0,1,0,0,980,1566,"SU",0,0.46,0.52,0.49,46,52,49,54,48,51
"791",4,191,1,0,0,1,10,990,683,"SU",1,0.48,0.43,0.54,48,43,54,52,57,46
"792",4,192,1,0,0,1,10,1000,600,"SU",1,0.48,0.44,0.59,48,44,59,52,56,41
"793",4,193,1,0,0,1,10,1010,1166,"SU",1,0.46,0.55,0.51,46,55,51,54,45,49
"794",4,194,1,1,0,0,0,1010,550,"SU",0,0.48,0.44,0.52,48,44,52,52,56,48
"795",4,195,1,1,1,1,10,1020,1300,"SU",1,0.51,0.45,0.52,51,45,52,49,55,48
"796",4,196,1,0,1,0,0,1020,1266,"SU",0,0.41,0.47,0.45,41,47,45,59,53,55
"797",4,197,1,0,0,1,10,1030,5100,"SU",1,0.44,0.43,0.45,44,43,45,56,57,55
"798",4,198,1,0,0,1,10,1040,566,"SU",1,0.5,0.46,0.5,50,46,50,50,54,50
"799",4,199,1,0,0,1,10,1050,633,"SU",1,0.45,0.36,0.53,45,36,53,55,64,47
"800",4,200,1,0,1,0,0,1050,783,"SU",0,0.61,0.54,0.54,61,54,54,39,46,46
"801",5,1,1,0,1,0,0,0,2766,"SU",0,0.39,0.4,0.39,39,40,39,61,60,61
"802",5,2,1,0,0,1,10,10,8516,"SU",1,0.54,0.5,0.63,54,50,63,46,50,37
"803",5,3,1,0,0,1,10,20,2750,"SU",1,0.58,0.57,0.68,58,57,68,42,43,32
"804",5,4,1,0,1,0,0,20,3566,"SU",0,0.57,0.58,0.7,57,58,70,43,42,30
"805",5,5,1,0,0,1,10,30,2300,"SU",1,0.81,0.67,0.79,81,67,79,19,33,21
"806",5,6,1,1,0,0,0,30,10200,"SU",0,0.54,0.52,0.54,54,52,54,46,48,46
"807",5,7,1,1,1,1,10,40,2450,"SU",1,0.57,0.57,0.74,57,57,74,43,43,26
"808",5,8,1,0,1,0,0,40,5150,"SU",0,0.72,0.63,0.75,72,63,75,28,37,25
"809",5,9,1,1,0,0,0,40,2883,"SU",0,0.7,0.52,0.77,70,52,77,30,48,23
"810",5,10,1,1,1,1,10,50,2966,"SU",1,0.71,0.61,0.74,71,61,74,29,39,26
"811",5,11,1,0,0,1,10,60,3000,"SU",1,0.77,0.65,0.87,77,65,87,23,35,13
"812",5,12,1,0,0,1,10,70,4433,"SU",1,0.64,0.66,0.78,64,66,78,36,34,22
"813",5,13,1,0,0,1,10,80,9300,"SU",1,0.72,0.62,0.8,72,62,80,28,38,20
"814",5,14,1,0,0,1,10,90,1366,"SU",1,0.75,0.72,0.67,75,72,67,25,28,33
"815",5,15,1,1,0,0,0,90,5050,"SU",0,0.66,0.66,0.76,66,66,76,34,34,24
"816",5,16,1,1,0,0,0,90,1916,"SU",0,0.68,0.7,0.81,68,70,81,32,30,19
"817",5,17,1,1,0,0,0,90,1000,"SU",0,0.79,0.66,0.73,79,66,73,21,34,27
"818",5,18,1,0,1,0,0,90,866,"SU",0,0.7,0.61,0.78,70,61,78,30,39,22
"819",5,19,1,1,0,0,0,90,2450,"SU",0,0.69,0.66,0.75,69,66,75,31,34,25
"820",5,20,1,0,0,1,10,100,4183,"SU",1,0.8,0.68,0.74,80,68,74,20,32,26
"821",5,21,1,1,1,1,10,110,2550,"SU",1,0.74,0.63,0.76,74,63,76,26,37,24
"822",5,22,1,1,0,0,0,110,3016,"SU",0,0.73,0.68,0.8,73,68,80,27,32,20
"823",5,23,1,0,0,1,10,120,1600,"SU",1,0.78,0.69,0.7,78,69,70,22,31,30
"824",5,24,1,0,1,0,0,120,1816,"SU",0,0.69,0.69,0.78,69,69,78,31,31,22
"825",5,25,1,0,0,1,10,130,3533,"SU",1,0.73,0.68,0.73,73,68,73,27,32,27
"826",5,26,1,0,0,1,10,140,1016,"SU",1,0.74,0.73,0.71,74,73,71,26,27,29
"827",5,27,1,0,0,1,10,150,2616,"SU",1,0.72,0.76,0.75,72,76,75,28,24,25
"828",5,28,1,0,0,1,10,160,750,"SU",1,0.79,0.74,0.76,79,74,76,21,26,24
"829",5,29,1,1,1,1,10,170,1000,"SU",1,0.69,0.77,0.77,69,77,77,31,23,23
"830",5,30,1,1,1,1,10,180,1733,"SU",1,0.73,0.71,0.77,73,71,77,27,29,23
"831",5,31,1,0,1,0,0,180,2166,"SU",0,0.64,0.72,0.75,64,72,75,36,28,25
"832",5,32,1,0,0,1,10,190,983,"SU",1,0.73,0.77,0.75,73,77,75,27,23,25
"833",5,33,1,0,0,1,10,200,1233,"SU",1,0.74,0.71,0.73,74,71,73,26,29,27
"834",5,34,1,1,1,1,10,210,1066,"SU",1,0.67,0.72,0.72,67,72,72,33,28,28
"835",5,35,1,1,1,1,10,220,783,"SU",1,0.68,0.71,0.71,68,71,71,32,29,29
"836",5,36,1,1,1,1,10,230,1100,"SU",1,0.82,0.82,0.78,82,82,78,18,18,22
"837",5,37,1,0,0,1,10,240,583,"SU",1,0.75,0.65,0.79,75,65,79,25,35,21
"838",5,38,1,1,1,1,10,250,883,"SU",1,0.66,0.73,0.76,66,73,76,34,27,24
"839",5,39,1,0,0,1,10,260,916,"SU",1,0.73,0.71,0.73,73,71,73,27,29,27
"840",5,40,1,1,1,1,10,270,1566,"SU",1,0.79,0.76,0.75,79,76,75,21,24,25
"841",5,41,1,1,0,0,0,270,666,"SU",0,0.78,0.78,0.76,78,78,76,22,22,24
"842",5,42,1,1,1,1,10,280,900,"SU",1,0.7,0.68,0.82,70,68,82,30,32,18
"843",5,43,1,1,1,1,10,290,766,"SU",1,0.73,0.68,0.78,73,68,78,27,32,22
"844",5,44,1,1,0,0,0,290,583,"SU",0,0.7,0.72,0.77,70,72,77,30,28,23
"845",5,45,1,1,1,1,10,300,783,"SU",1,0.77,0.73,0.75,77,73,75,23,27,25
"846",5,46,1,0,0,1,10,310,683,"SU",1,0.82,0.67,0.8,82,67,80,18,33,20
"847",5,47,1,1,1,1,10,320,916,"SU",1,0.7,0.72,0.72,70,72,72,30,28,28
"848",5,48,1,0,0,1,10,330,1766,"SU",1,0.7,0.75,0.77,70,75,77,30,25,23
"849",5,49,1,1,0,0,0,330,883,"SU",0,0.78,0.7,0.71,78,70,71,22,30,29
"850",5,50,1,0,0,1,10,340,883,"SU",1,0.69,0.75,0.77,69,75,77,31,25,23
"851",5,51,1,1,1,1,10,350,750,"SU",1,0.67,0.77,0.84,67,77,84,33,23,16
"852",5,52,1,0,0,1,10,360,500,"SU",1,0.69,0.71,0.77,69,71,77,31,29,23
"853",5,53,1,1,1,1,10,370,533,"SU",1,0.74,0.65,0.69,74,65,69,26,35,31
"854",5,54,1,0,1,0,0,370,850,"SU",0,0.73,0.66,0.72,73,66,72,27,34,28
"855",5,55,1,1,1,1,10,380,966,"SU",1,0.67,0.75,0.75,67,75,75,33,25,25
"856",5,56,1,0,0,1,10,390,866,"SU",1,0.73,0.67,0.72,73,67,72,27,33,28
"857",5,57,1,1,0,0,0,390,566,"SU",0,0.68,0.78,0.78,68,78,78,32,22,22
"858",5,58,1,1,0,0,0,390,550,"SU",0,0.69,0.71,0.79,69,71,79,31,29,21
"859",5,59,1,1,0,0,0,390,616,"SU",0,0.75,0.82,0.74,75,82,74,25,18,26
"860",5,60,1,1,1,1,10,400,750,"SU",1,0.75,0.7,0.79,75,70,79,25,30,21
"861",5,61,1,0,0,1,10,410,1000,"SU",1,0.74,0.75,0.74,74,75,74,26,25,26
"862",5,62,1,0,0,1,10,420,516,"SU",1,0.66,0.74,0.7,66,74,70,34,26,30
"863",5,63,1,0,0,1,10,430,766,"SU",1,0.71,0.72,0.75,71,72,75,29,28,25
"864",5,64,1,0,0,1,10,440,566,"SU",1,0.69,0.74,0.78,69,74,78,31,26,22
"865",5,65,1,1,1,1,10,450,666,"SU",1,0.65,0.63,0.8,65,63,80,35,37,20
"866",5,66,1,1,1,1,10,460,717,"SU",1,0.72,0.78,0.76,72,78,76,28,22,24
"867",5,67,1,0,0,1,10,470,1183,"SU",1,0.74,0.63,0.75,74,63,75,26,37,25
"868",5,68,1,0,0,1,10,480,850,"SU",1,0.75,0.76,0.74,75,76,74,25,24,26
"869",5,69,1,1,1,1,10,490,816,"SU",1,0.67,0.74,0.72,67,74,72,33,26,28
"870",5,70,1,0,0,1,10,500,716,"SU",1,0.64,0.73,0.79,64,73,79,36,27,21
"871",5,71,1,1,1,1,10,510,1083,"SU",1,0.72,0.69,0.78,72,69,78,28,31,22
"872",5,72,1,1,0,0,0,510,766,"SU",0,0.79,0.7,0.71,79,70,71,21,30,29
"873",5,73,1,1,0,0,0,510,766,"SU",0,0.77,0.78,0.72,77,78,72,23,22,28
"874",5,74,1,1,0,0,0,510,650,"SU",0,0.64,0.76,0.79,64,76,79,36,24,21
"875",5,75,1,0,0,1,10,520,817,"SU",1,0.74,0.75,0.77,74,75,77,26,25,23
"876",5,76,1,1,0,0,0,520,633,"SU",0,0.75,0.75,0.76,75,75,76,25,25,24
"877",5,77,1,0,0,1,10,530,683,"SU",1,0.72,0.72,0.83,72,72,83,28,28,17
"878",5,78,1,0,0,1,10,540,550,"SU",1,0.72,0.75,0.74,72,75,74,28,25,26
"879",5,79,1,0,0,1,10,550,1033,"SU",1,0.77,0.67,0.74,77,67,74,23,33,26
"880",5,80,1,1,1,1,10,560,983,"SU",1,0.76,0.74,0.66,76,74,66,24,26,34
"881",5,81,1,0,0,1,10,570,733,"SU",1,0.75,0.73,0.79,75,73,79,25,27,21
"882",5,82,1,0,0,1,10,580,883,"SU",1,0.75,0.72,0.73,75,72,73,25,28,27
"883",5,83,1,1,1,1,10,590,733,"SU",1,0.76,0.78,0.8,76,78,80,24,22,20
"884",5,84,1,0,1,0,0,590,1083,"SU",0,0.72,0.87,0.68,72,87,68,28,13,32
"885",5,85,1,1,1,1,10,600,866,"SU",1,0.73,0.66,0.8,73,66,80,27,34,20
"886",5,86,1,1,1,1,10,610,750,"SU",1,0.72,0.71,0.7,72,71,70,28,29,30
"887",5,87,1,0,0,1,10,620,1350,"SU",1,0.73,0.71,0.7,73,71,70,27,29,30
"888",5,88,1,1,1,1,10,630,833,"SU",1,0.79,0.72,0.74,79,72,74,21,28,26
"889",5,89,1,0,0,1,10,640,533,"SU",1,0.78,0.77,0.76,78,77,76,22,23,24
"890",5,90,1,1,1,1,10,650,733,"SU",1,0.72,0.68,0.78,72,68,78,28,32,22
"891",5,91,1,1,1,1,10,660,566,"SU",1,0.77,0.69,0.8,77,69,80,23,31,20
"892",5,92,1,0,0,1,10,670,633,"SU",1,0.78,0.76,0.72,78,76,72,22,24,28
"893",5,93,1,0,0,1,10,680,650,"SU",1,0.67,0.67,0.81,67,67,81,33,33,19
"894",5,94,1,1,1,1,10,690,833,"SU",1,0.73,0.66,0.76,73,66,76,27,34,24
"895",5,95,1,0,0,1,10,700,700,"SU",1,0.76,0.71,0.69,76,71,69,24,29,31
"896",5,96,1,1,1,1,10,710,800,"SU",1,0.77,0.77,0.64,77,77,64,23,23,36
"897",5,97,1,1,1,1,10,720,833,"SU",1,0.69,0.68,0.78,69,68,78,31,32,22
"898",5,98,1,0,0,1,10,730,583,"SU",1,0.68,0.64,0.69,68,64,69,32,36,31
"899",5,99,1,1,1,1,10,740,866,"SU",1,0.73,0.69,0.67,73,69,67,27,31,33
"900",5,100,1,0,0,1,10,750,633,"SU",1,0.69,0.81,0.71,69,81,71,31,19,29
"901",5,101,0,0,1,0,0,750,633,"SU",0,0.25,0.18,0.32,25,18,32,75,82,68
"902",5,102,0,0,1,0,0,750,1000,"SU",0,0.35,0.18,0.3,35,18,30,65,82,70
"903",5,103,0,1,1,1,10,760,600,"SU",1,0.33,0.3,0.34,33,30,34,67,70,66
"904",5,104,0,1,0,0,0,760,999,"SU",0,0.48,0.35,0.28,48,35,28,52,65,72
"905",5,105,0,0,1,0,0,760,866,"SU",0,0.52,0.3,0.32,52,30,32,48,70,68
"906",5,106,0,1,0,0,0,760,666,"SU",0,0.49,0.27,0.36,49,27,36,51,73,64
"907",5,107,0,1,0,0,0,760,783,"SU",0,0.59,0.39,0.34,59,39,34,41,61,66
"908",5,108,0,1,1,1,10,770,1833,"SU",1,0.72,0.42,0.43,72,42,43,28,58,57
"909",5,109,0,1,1,1,10,780,3400,"SU",1,0.65,0.53,0.56,65,53,56,35,47,44
"910",5,110,0,1,1,1,10,790,800,"SU",1,0.7,0.53,0.53,70,53,53,30,47,47
"911",5,111,0,1,1,1,10,800,883,"SU",1,0.76,0.6,0.56,76,60,56,24,40,44
"912",5,112,0,0,0,1,10,810,600,"SU",1,0.57,0.29,0.43,57,29,43,43,71,57
"913",5,113,0,0,0,1,10,820,916,"SU",1,0.7,0.27,0.47,70,27,47,30,73,53
"914",5,114,0,0,0,1,10,830,1066,"SU",1,0.67,0.47,0.54,67,47,54,33,53,46
"915",5,115,0,0,0,1,10,840,516,"SU",1,0.62,0.51,0.64,62,51,64,38,49,36
"916",5,116,0,0,0,1,10,850,816,"SU",1,0.74,0.53,0.64,74,53,64,26,47,36
"917",5,117,0,0,0,1,10,860,650,"SU",1,0.66,0.63,0.62,66,63,62,34,37,38
"918",5,118,0,1,1,1,10,870,716,"SU",1,0.67,0.57,0.6,67,57,60,33,43,40
"919",5,119,0,0,0,1,10,880,1183,"SU",1,0.66,0.63,0.67,66,63,67,34,37,33
"920",5,120,0,1,1,1,10,890,683,"SU",1,0.7,0.63,0.61,70,63,61,30,37,39
"921",5,121,0,0,0,1,10,900,683,"SU",1,0.72,0.66,0.63,72,66,63,28,34,37
"922",5,122,0,1,0,0,0,900,633,"SU",0,0.72,0.7,0.62,72,70,62,28,30,38
"923",5,123,0,0,0,1,10,910,1100,"SU",1,0.74,0.61,0.65,74,61,65,26,39,35
"924",5,124,0,1,1,1,10,920,816,"SU",1,0.69,0.62,0.63,69,62,63,31,38,37
"925",5,125,0,1,1,1,10,930,666,"SU",1,0.75,0.7,0.65,75,70,65,25,30,35
"926",5,126,0,0,0,1,10,940,766,"SU",1,0.63,0.75,0.63,63,75,63,37,25,37
"927",5,127,0,0,0,1,10,950,566,"SU",1,0.78,0.61,0.64,78,61,64,22,39,36
"928",5,128,0,0,0,1,10,960,666,"SU",1,0.8,0.64,0.6,80,64,60,20,36,40
"929",5,129,0,0,1,0,0,960,750,"SU",0,0.76,0.74,0.64,76,74,64,24,26,36
"930",5,130,0,0,0,1,10,970,483,"SU",1,0.8,0.69,0.72,80,69,72,20,31,28
"931",5,131,0,0,0,1,10,980,1016,"SU",1,0.69,0.67,0.69,69,67,69,31,33,31
"932",5,132,0,0,0,1,10,990,1033,"SU",1,0.74,0.67,0.71,74,67,71,26,33,29
"933",5,133,0,1,1,1,10,1000,633,"SU",1,0.74,0.73,0.57,74,73,57,26,27,43
"934",5,134,0,0,0,1,10,1010,616,"SU",1,0.7,0.72,0.68,70,72,68,30,28,32
"935",5,135,0,1,0,0,0,1010,633,"SU",0,0.75,0.74,0.66,75,74,66,25,26,34
"936",5,136,0,1,0,0,0,1010,866,"SU",0,0.77,0.63,0.59,77,63,59,23,37,41
"937",5,137,0,1,0,0,0,1010,550,"SU",0,0.75,0.72,0.65,75,72,65,25,28,35
"938",5,138,0,1,0,0,0,1010,816,"SU",0,0.63,0.68,0.67,63,68,67,37,32,33
"939",5,139,0,1,1,1,10,1020,766,"SU",1,0.69,0.74,0.62,69,74,62,31,26,38
"940",5,140,0,0,1,0,0,1020,600,"SU",0,0.74,0.7,0.7,74,70,70,26,30,30
"941",5,141,0,1,0,0,0,1020,966,"SU",0,0.75,0.62,0.67,75,62,67,25,38,33
"942",5,142,0,0,1,0,0,1020,1416,"SU",0,0.68,0.76,0.73,68,76,73,32,24,27
"943",5,143,0,0,0,1,10,1030,1783,"SU",1,0.69,0.78,0.71,69,78,71,31,22,29
"944",5,144,0,0,0,1,10,1040,1516,"SU",1,0.68,0.76,0.71,68,76,71,32,24,29
"945",5,145,0,1,1,1,10,1050,616,"SU",1,0.78,0.78,0.68,78,78,68,22,22,32
"946",5,146,0,0,0,1,10,1060,783,"SU",1,0.64,0.73,0.69,64,73,69,36,27,31
"947",5,147,0,0,0,1,10,1070,566,"SU",1,0.68,0.7,0.7,68,70,70,32,30,30
"948",5,148,0,1,0,0,0,1070,716,"SU",0,0.77,0.67,0.66,77,67,66,23,33,34
"949",5,149,0,0,0,1,10,1080,700,"SU",1,0.71,0.64,0.77,71,64,77,29,36,23
"950",5,150,0,0,1,0,0,1080,716,"SU",0,0.67,0.72,0.68,67,72,68,33,28,32
"951",5,151,0,0,0,1,10,1090,516,"SU",1,0.69,0.73,0.73,69,73,73,31,27,27
"952",5,152,0,0,0,1,10,1100,700,"SU",1,0.78,0.77,0.67,78,77,67,22,23,33
"953",5,153,0,1,1,1,10,1110,783,"SU",1,0.76,0.67,0.79,76,67,79,24,33,21
"954",5,154,0,1,1,1,10,1120,700,"SU",1,0.74,0.67,0.7,74,67,70,26,33,30
"955",5,155,0,0,0,1,10,1130,633,"SU",1,0.65,0.75,0.67,65,75,67,35,25,33
"956",5,156,0,1,0,0,0,1130,533,"SU",0,0.64,0.75,0.76,64,75,76,36,25,24
"957",5,157,0,1,0,0,0,1130,1516,"SU",0,0.75,0.69,0.75,75,69,75,25,31,25
"958",5,158,0,1,0,0,0,1130,516,"SU",0,0.84,0.79,0.77,84,79,77,16,21,23
"959",5,159,0,1,1,1,10,1140,966,"SU",1,0.7,0.76,0.7,70,76,70,30,24,30
"960",5,160,0,1,1,1,10,1150,633,"SU",1,0.69,0.74,0.71,69,74,71,31,26,29
"961",5,161,0,1,0,0,0,1150,800,"SU",0,0.71,0.74,0.72,71,74,72,29,26,28
"962",5,162,0,0,0,1,10,1160,583,"SU",1,0.7,0.76,0.66,70,76,66,30,24,34
"963",5,163,0,1,1,1,10,1170,700,"SU",1,0.68,0.75,0.73,68,75,73,32,25,27
"964",5,164,0,0,0,1,10,1180,616,"SU",1,0.74,0.79,0.74,74,79,74,26,21,26
"965",5,165,0,0,0,1,10,1190,650,"SU",1,0.82,0.73,0.75,82,73,75,18,27,25
"966",5,166,0,1,1,1,10,1200,766,"SU",1,0.77,0.72,0.72,77,72,72,23,28,28
"967",5,167,0,1,1,1,10,1210,733,"SU",1,0.75,0.69,0.7,75,69,70,25,31,30
"968",5,168,0,1,0,0,0,1210,1133,"SU",0,0.73,0.72,0.75,73,72,75,27,28,25
"969",5,169,0,1,0,0,0,1210,683,"SU",0,0.74,0.65,0.64,74,65,64,26,35,36
"970",5,170,0,1,0,0,0,1210,600,"SU",0,0.77,0.75,0.68,77,75,68,23,25,32
"971",5,171,0,0,0,1,10,1220,600,"SU",1,0.75,0.73,0.71,75,73,71,25,27,29
"972",5,172,0,0,0,1,10,1230,650,"SU",1,0.75,0.71,0.72,75,71,72,25,29,28
"973",5,173,0,0,0,1,10,1240,716,"SU",1,0.69,0.7,0.65,69,70,65,31,30,35
"974",5,174,0,0,0,1,10,1250,516,"SU",1,0.77,0.67,0.73,77,67,73,23,33,27
"975",5,175,0,0,1,0,0,1250,733,"SU",0,0.76,0.61,0.74,76,61,74,24,39,26
"976",5,176,0,1,0,0,0,1250,1066,"SU",0,0.64,0.75,0.6,64,75,60,36,25,40
"977",5,177,0,1,0,0,0,1250,1066,"SU",0,0.7,0.78,0.71,70,78,71,30,22,29
"978",5,178,0,1,1,1,10,1260,916,"SU",1,0.75,0.72,0.63,75,72,63,25,28,37
"979",5,179,0,1,1,1,10,1270,583,"SU",1,0.75,0.77,0.74,75,77,74,25,23,26
"980",5,180,0,0,1,0,0,1270,733,"SU",0,0.75,0.77,0.69,75,77,69,25,23,31
"981",5,181,0,0,0,1,10,1280,1066,"SU",1,0.72,0.66,0.71,72,66,71,28,34,29
"982",5,182,0,1,1,1,10,1290,816,"SU",1,0.75,0.66,0.66,75,66,66,25,34,34
"983",5,183,0,0,0,1,10,1300,866,"SU",1,0.82,0.71,0.73,82,71,73,18,29,27
"984",5,184,0,1,0,0,0,1300,783,"SU",0,0.75,0.61,0.78,75,61,78,25,39,22
"985",5,185,0,1,0,0,0,1300,566,"SU",0,0.74,0.7,0.72,74,70,72,26,30,28
"986",5,186,0,1,0,0,0,1300,850,"SU",0,0.75,0.76,0.64,75,76,64,25,24,36
"987",5,187,0,0,0,1,10,1310,516,"SU",1,0.73,0.75,0.74,73,75,74,27,25,26
"988",5,188,0,0,0,1,10,1320,833,"SU",1,0.7,0.77,0.72,70,77,72,30,23,28
"989",5,189,0,0,0,1,10,1330,750,"SU",1,0.69,0.73,0.69,69,73,69,31,27,31
"990",5,190,0,1,0,0,0,1330,1050,"SU",0,0.72,0.78,0.68,72,78,68,28,22,32
"991",5,191,0,1,1,1,10,1340,816,"SU",1,0.77,0.71,0.75,77,71,75,23,29,25
"992",5,192,0,0,0,1,10,1350,766,"SU",1,0.75,0.75,0.77,75,75,77,25,25,23
"993",5,193,0,0,0,1,10,1360,850,"SU",1,0.66,0.65,0.65,66,65,65,34,35,35
"994",5,194,0,1,0,0,0,1360,833,"SU",0,0.75,0.74,0.69,75,74,69,25,26,31
"995",5,195,0,0,0,1,10,1370,616,"SU",1,0.76,0.73,0.69,76,73,69,24,27,31
"996",5,196,0,0,0,1,10,1380,700,"SU",1,0.76,0.74,0.69,76,74,69,24,26,31
"997",5,197,0,1,1,1,10,1390,666,"SU",1,0.69,0.7,0.61,69,70,61,31,30,39
"998",5,198,0,1,1,1,10,1400,783,"SU",1,0.73,0.75,0.74,73,75,74,27,25,26
"999",5,199,0,1,0,0,0,1400,850,"SU",0,0.67,0.78,0.69,67,78,69,33,22,31
"1000",5,200,0,0,0,1,10,1410,933,"SU",1,0.65,0.71,0.74,65,71,74,35,29,26
"1001",6,1,1,0,0,1,10,10,1250,"SU",1,0.53,0.55,0.57,53,55,57,47,45,43
"1002",6,2,1,1,1,1,10,20,1816,"SU",1,0.41,0.42,0.42,41,42,42,59,58,58
"1003",6,3,1,0,1,0,0,20,1383,"SU",0,0.53,0.52,0.48,53,52,48,47,48,52
"1004",6,4,1,1,0,0,0,20,2933,"SU",0,0.55,0.46,0.48,55,46,48,45,54,52
"1005",6,5,1,1,0,0,0,20,1783,"SU",0,0.66,0.64,0.66,66,64,66,34,36,34
"1006",6,6,1,1,1,1,10,30,550,"SU",1,0.78,0.57,0.76,78,57,76,22,43,24
"1007",6,7,1,1,1,1,10,40,2883,"SU",1,0.82,0.68,0.81,82,68,81,18,32,19
"1008",6,8,1,0,1,0,0,40,1050,"SU",0,0.39,0.5,0.44,39,50,44,61,50,56
"1009",6,9,1,1,1,1,10,50,2700,"SU",1,0.74,0.55,0.8,74,55,80,26,45,20
"1010",6,10,1,1,1,1,10,60,2366,"SU",1,0.79,0.6,0.79,79,60,79,21,40,21
"1011",6,11,1,1,1,1,10,70,1083,"SU",1,0.88,0.6,0.89,88,60,89,12,40,11
"1012",6,12,1,1,1,1,10,80,800,"SU",1,0.93,0.73,0.92,93,73,92,7,27,8
"1013",6,13,1,0,1,0,0,80,1016,"SU",0,0.35,0.59,0.35,35,59,35,65,41,65
"1014",6,14,1,0,1,0,0,80,1166,"SU",0,0.53,0.64,0.53,53,64,53,47,36,47
"1015",6,15,1,0,0,1,10,90,750,"SU",1,0.73,0.62,0.7,73,62,70,27,38,30
"1016",6,16,1,0,0,1,10,100,850,"SU",1,0.72,0.62,0.8,72,62,80,28,38,20
"1017",6,17,1,1,0,0,0,100,1466,"SU",0,0.51,0.66,0.61,51,66,61,49,34,39
"1018",6,18,1,1,0,0,0,100,1600,"SU",0,0.62,0.61,0.65,62,61,65,38,39,35
"1019",6,19,1,0,1,0,0,100,750,"SU",0,0.67,0.61,0.67,67,61,67,33,39,33
"1020",6,20,1,0,1,0,0,100,1900,"SU",0,0.63,0.72,0.73,63,72,73,37,28,27
"1021",6,21,1,0,1,0,0,100,1750,"SU",0,0.74,0.76,0.75,74,76,75,26,24,25
"1022",6,22,1,0,0,1,10,110,733,"SU",1,0.87,0.62,0.88,87,62,88,13,38,12
"1023",6,23,1,1,1,1,10,120,1483,"SU",1,0.38,0.72,0.46,38,72,46,62,28,54
"1024",6,24,1,1,0,0,0,120,2250,"SU",0,0.6,0.61,0.57,60,61,57,40,39,43
"1025",6,25,1,1,1,1,10,130,566,"SU",1,0.69,0.68,0.76,69,68,76,31,32,24
"1026",6,26,1,0,1,0,0,130,666,"SU",0,0.61,0.56,0.53,61,56,53,39,44,47
"1027",6,27,1,0,1,0,0,130,1133,"SU",0,0.65,0.67,0.66,65,67,66,35,33,34
"1028",6,28,1,1,1,1,10,140,1850,"SU",1,0.61,0.67,0.56,61,67,56,39,33,44
"1029",6,29,1,1,1,1,10,150,1066,"SU",1,0.67,0.65,0.86,67,65,86,33,35,14
"1030",6,30,1,1,1,1,10,160,1950,"SU",1,0.75,0.69,0.81,75,69,81,25,31,19
"1031",6,31,1,0,0,1,10,170,1916,"SU",1,0.54,0.7,0.52,54,70,52,46,30,48
"1032",6,32,1,0,0,1,10,180,1600,"SU",1,0.68,0.62,0.72,68,62,72,32,38,28
"1033",6,33,1,0,0,1,10,190,550,"SU",1,0.68,0.71,0.68,68,71,68,32,29,32
"1034",6,34,1,1,1,1,10,200,1533,"SU",1,0.54,0.64,0.59,54,64,59,46,36,41
"1035",6,35,1,1,1,1,10,210,766,"SU",1,0.62,0.59,0.64,62,59,64,38,41,36
"1036",6,36,1,0,0,1,10,220,1316,"SU",1,0.58,0.72,0.67,58,72,67,42,28,33
"1037",6,37,1,1,0,0,0,220,633,"SU",0,0.67,0.65,0.7,67,65,70,33,35,30
"1038",6,38,1,0,1,0,0,220,1983,"SU",0,0.56,0.71,0.7,56,71,70,44,29,30
"1039",6,39,1,1,1,1,10,230,1550,"SU",1,0.61,0.58,0.72,61,58,72,39,42,28
"1040",6,40,1,0,0,1,10,240,716,"SU",1,0.61,0.67,0.61,61,67,61,39,33,39
"1041",6,41,1,1,1,1,10,250,1516,"SU",1,0.61,0.66,0.64,61,66,64,39,34,36
"1042",6,42,1,1,1,1,10,260,1433,"SU",1,0.77,0.67,0.73,77,67,73,23,33,27
"1043",6,43,1,1,1,1,10,270,883,"SU",1,0.79,0.68,0.73,79,68,73,21,32,27
"1044",6,44,1,0,1,0,0,270,3533,"SU",0,0.34,0.6,0.54,34,60,54,66,40,46
"1045",6,45,1,1,1,1,10,280,3850,"SU",1,0.65,0.72,0.71,65,72,71,35,28,29
"1046",6,46,1,1,1,1,10,290,800,"SU",1,0.79,0.71,0.81,79,71,81,21,29,19
"1047",6,47,1,1,1,1,10,300,1800,"SU",1,0.81,0.64,0.87,81,64,87,19,36,13
"1048",6,48,1,0,0,1,10,310,566,"SU",1,0.38,0.63,0.42,38,63,42,62,37,58
"1049",6,49,1,0,0,1,10,320,850,"SU",1,0.53,0.69,0.63,53,69,63,47,31,37
"1050",6,50,1,1,0,0,0,320,2800,"SU",0,0.58,0.65,0.65,58,65,65,42,35,35
"1051",6,51,1,1,0,0,0,320,1150,"SU",0,0.78,0.69,0.61,78,69,61,22,31,39
"1052",6,52,1,0,1,0,0,320,716,"SU",0,0.58,0.7,0.62,58,70,62,42,30,38
"1053",6,53,1,1,1,1,10,330,1600,"SU",1,0.72,0.72,0.67,72,72,67,28,28,33
"1054",6,54,1,0,0,1,10,340,1566,"SU",1,0.68,0.71,0.66,68,71,66,32,29,34
"1055",6,55,1,0,0,1,10,350,1750,"SU",1,0.75,0.64,0.72,75,64,72,25,36,28
"1056",6,56,1,0,0,1,10,360,983,"SU",1,0.78,0.69,0.78,78,69,78,22,31,22
"1057",6,57,1,1,1,1,10,370,800,"SU",1,0.51,0.69,0.51,51,69,51,49,31,49
"1058",6,58,1,0,0,1,10,380,1250,"SU",1,0.71,0.73,0.71,71,73,71,29,27,29
"1059",6,59,1,1,1,1,10,390,1450,"SU",1,0.63,0.74,0.62,63,74,62,37,26,38
"1060",6,60,1,0,0,1,10,400,2366,"SU",1,0.6,0.64,0.72,60,64,72,40,36,28
"1061",6,61,1,1,0,0,0,400,1150,"SU",0,0.65,0.66,0.63,65,66,63,35,34,37
"1062",6,62,1,0,1,0,0,400,1166,"SU",0,0.6,0.7,0.77,60,70,77,40,30,23
"1063",6,63,1,1,1,1,10,410,983,"SU",1,0.67,0.67,0.65,67,67,65,33,33,35
"1064",6,64,1,0,1,0,0,410,1600,"SU",0,0.61,0.73,0.66,61,73,66,39,27,34
"1065",6,65,1,0,0,1,10,420,1100,"SU",1,0.69,0.72,0.77,69,72,77,31,28,23
"1066",6,66,1,0,0,1,10,430,700,"SU",1,0.78,0.66,0.86,78,66,86,22,34,14
"1067",6,67,1,0,0,1,10,440,766,"SU",1,0.83,0.69,0.82,83,69,82,17,31,18
"1068",6,68,1,0,0,1,10,450,2116,"SU",1,0.89,0.68,0.85,89,68,85,11,32,15
"1069",6,69,1,0,1,0,0,450,533,"SU",0,0.89,0.57,0.9,89,57,90,11,43,10
"1070",6,70,1,0,1,0,0,450,1550,"SU",0,0.89,0.69,0.95,89,69,95,11,31,5
"1071",6,71,1,0,0,1,10,460,883,"SU",1,0.9,0.62,0.89,90,62,89,10,38,11
"1072",6,72,1,0,0,1,10,470,983,"SU",1,0.92,0.73,0.94,92,73,94,8,27,6
"1073",6,73,1,0,0,1,10,480,1150,"SU",1,0.96,0.73,0.93,96,73,93,4,27,7
"1074",6,74,1,0,0,1,10,490,566,"SU",1,0.95,0.69,0.92,95,69,92,5,31,8
"1075",6,75,1,0,0,1,10,500,733,"SU",1,0.92,0.68,0.95,92,68,95,8,32,5
"1076",6,76,1,1,0,0,0,500,633,"SU",0,0.17,0.65,0.16,17,65,16,83,35,84
"1077",6,77,1,1,1,1,10,510,2550,"SU",1,0.37,0.71,0.47,37,71,47,63,29,53
"1078",6,78,1,0,1,0,0,510,1250,"SU",0,0.71,0.77,0.73,71,77,73,29,23,27
"1079",6,79,1,1,1,1,10,520,2200,"SU",1,0.57,0.72,0.55,57,72,55,43,28,45
"1080",6,80,1,0,1,0,0,520,1366,"SU",0,0.64,0.66,0.67,64,66,67,36,34,33
"1081",6,81,1,1,0,0,0,520,1916,"SU",0,0.58,0.69,0.6,58,69,60,42,31,40
"1082",6,82,1,1,1,1,10,530,750,"SU",1,0.66,0.66,0.68,66,66,68,34,34,32
"1083",6,83,1,0,1,0,0,530,983,"SU",0,0.58,0.62,0.66,58,62,66,42,38,34
"1084",6,84,1,1,1,1,10,540,3333,"SU",1,0.64,0.56,0.73,64,56,73,36,44,27
"1085",6,85,1,1,1,1,10,550,1433,"SU",1,0.73,0.74,0.79,73,74,79,27,26,21
"1086",6,86,1,1,1,1,10,560,966,"SU",1,0.72,0.73,0.79,72,73,79,28,27,21
"1087",6,87,1,0,1,0,0,560,1150,"SU",0,0.46,0.75,0.45,46,75,45,54,25,55
"1088",6,88,1,0,0,1,10,570,866,"SU",1,0.65,0.68,0.66,65,68,66,35,32,34
"1089",6,89,1,0,0,1,10,580,750,"SU",1,0.7,0.75,0.76,70,75,76,30,25,24
"1090",6,90,1,1,0,0,0,580,1166,"SU",0,0.5,0.64,0.6,50,64,60,50,36,40
"1091",6,91,1,0,0,1,10,590,650,"SU",1,0.65,0.62,0.75,65,62,75,35,38,25
"1092",6,92,1,1,1,1,10,600,550,"SU",1,0.57,0.71,0.6,57,71,60,43,29,40
"1093",6,93,1,1,1,1,10,610,866,"SU",1,0.73,0.69,0.76,73,69,76,27,31,24
"1094",6,94,1,1,1,1,10,620,783,"SU",1,0.7,0.67,0.75,70,67,75,30,33,25
"1095",6,95,1,1,1,1,10,630,1600,"SU",1,0.78,0.7,0.85,78,70,85,22,30,15
"1096",6,96,1,1,1,1,10,640,750,"SU",1,0.89,0.65,0.88,89,65,88,11,35,12
"1097",6,97,1,0,1,0,0,640,1366,"SU",0,0.37,0.61,0.46,37,61,46,63,39,54
"1098",6,98,1,0,0,1,10,650,650,"SU",1,0.55,0.71,0.63,55,71,63,45,29,37
"1099",6,99,1,1,1,1,10,660,2133,"SU",1,0.64,0.68,0.69,64,68,69,36,32,31
"1100",6,100,1,1,1,1,10,670,900,"SU",1,0.73,0.71,0.81,73,71,81,27,29,19
"1101",6,101,0,1,1,1,10,680,2216,"SU",1,0.17,0.31,0.13,17,31,13,83,69,87
"1102",6,102,0,1,1,1,10,690,933,"SU",1,0.51,0.35,0.49,51,35,49,49,65,51
"1103",6,103,0,1,1,1,10,700,1233,"SU",1,0.7,0.32,0.68,70,32,68,30,68,32
"1104",6,104,0,0,1,0,0,700,816,"SU",0,0.14,0.34,0.19,14,34,19,86,66,81
"1105",6,105,0,1,0,0,0,700,1183,"SU",0,0.71,0.37,0.6,71,37,60,29,63,40
"1106",6,106,0,0,0,1,10,710,1516,"SU",1,0.37,0.43,0.39,37,43,39,63,57,61
"1107",6,107,0,1,0,0,0,710,1616,"SU",0,0.56,0.4,0.63,56,40,63,44,60,37
"1108",6,108,0,0,1,0,0,710,1983,"SU",0,0.41,0.37,0.59,41,37,59,59,63,41
"1109",6,109,0,1,1,1,10,720,1000,"SU",1,0.61,0.54,0.61,61,54,61,39,46,39
"1110",6,110,0,1,1,1,10,730,900,"SU",1,0.83,0.51,0.78,83,51,78,17,49,22
"1111",6,111,0,0,1,0,0,730,1517,"SU",0,0.49,0.4,0.56,49,40,56,51,60,44
"1112",6,112,0,0,0,1,10,740,1800,"SU",1,0.65,0.38,0.63,65,38,63,35,62,37
"1113",6,113,0,1,1,1,10,750,4016,"SU",1,0.61,0.54,0.61,61,54,61,39,46,39
"1114",6,114,0,1,1,1,10,760,699,"SU",1,0.73,0.52,0.75,73,52,75,27,48,25
"1115",6,115,0,1,1,1,10,770,783,"SU",1,0.74,0.69,0.82,74,69,82,26,31,18
"1116",6,116,0,1,1,1,10,780,883,"SU",1,0.83,0.6,0.81,83,60,81,17,40,19
"1117",6,117,0,1,1,1,10,790,716,"SU",1,0.89,0.63,0.83,89,63,83,11,37,17
"1118",6,118,0,1,1,1,10,800,950,"SU",1,0.86,0.69,0.88,86,69,88,14,31,12
"1119",6,119,0,0,1,0,0,800,933,"SU",0,0.27,0.53,0.31,27,53,31,73,47,69
"1120",6,120,0,0,0,1,10,810,750,"SU",1,0.51,0.48,0.54,51,48,54,49,52,46
"1121",6,121,0,0,0,1,10,820,733,"SU",1,0.58,0.47,0.69,58,47,69,42,53,31
"1122",6,122,0,0,0,1,10,830,766,"SU",1,0.7,0.51,0.77,70,51,77,30,49,23
"1123",6,123,0,1,1,1,10,840,950,"SU",1,0.46,0.59,0.58,46,59,58,54,41,42
"1124",6,124,0,1,0,0,0,840,1150,"SU",0,0.64,0.63,0.61,64,63,61,36,37,39
"1125",6,125,0,0,0,1,10,850,750,"SU",1,0.56,0.6,0.64,56,60,64,44,40,36
"1126",6,126,0,0,0,1,10,860,733,"SU",1,0.66,0.54,0.76,66,54,76,34,46,24
"1127",6,127,0,1,0,0,0,860,750,"SU",0,0.57,0.68,0.56,57,68,56,43,32,44
"1128",6,128,0,0,1,0,0,860,2266,"SU",0,0.65,0.61,0.74,65,61,74,35,39,26
"1129",6,129,0,1,1,1,10,870,1066,"SU",1,0.55,0.61,0.65,55,61,65,45,39,35
"1130",6,130,0,1,1,1,10,880,883,"SU",1,0.61,0.77,0.69,61,77,69,39,23,31
"1131",6,131,0,1,1,1,10,890,1150,"SU",1,0.76,0.64,0.77,76,64,77,24,36,23
"1132",6,132,0,0,1,0,0,890,833,"SU",0,0.42,0.59,0.58,42,59,58,58,41,42
"1133",6,133,0,0,0,1,10,900,900,"SU",1,0.56,0.58,0.71,56,58,71,44,42,29
"1134",6,134,0,0,0,1,10,910,716,"SU",1,0.7,0.61,0.75,70,61,75,30,39,25
"1135",6,135,0,0,0,1,10,920,816,"SU",1,0.75,0.59,0.82,75,59,82,25,41,18
"1136",6,136,0,0,0,1,10,930,916,"SU",1,0.84,0.69,0.92,84,69,92,16,31,8
"1137",6,137,0,0,0,1,10,940,1100,"SU",1,0.87,0.62,0.81,87,62,81,13,38,19
"1138",6,138,0,0,0,1,10,950,833,"SU",1,0.81,0.69,0.89,81,69,89,19,31,11
"1139",6,139,0,0,0,1,10,960,566,"SU",1,0.91,0.7,0.88,91,70,88,9,30,12
"1140",6,140,0,1,0,0,0,960,1166,"SU",0,0.25,0.61,0.29,25,61,29,75,39,71
"1141",6,141,0,1,0,0,0,960,983,"SU",0,0.5,0.69,0.58,50,69,58,50,31,42
"1142",6,142,0,0,0,1,10,970,866,"SU",1,0.75,0.6,0.71,75,60,71,25,40,29
"1143",6,143,0,1,0,0,0,970,750,"SU",0,0.58,0.69,0.55,58,69,55,42,31,45
"1144",6,144,0,0,1,0,0,970,750,"SU",0,0.71,0.67,0.68,71,67,68,29,33,32
"1145",6,145,0,0,0,1,10,980,2133,"SU",1,0.71,0.68,0.7,71,68,70,29,32,30
"1146",6,146,0,1,0,0,0,980,800,"SU",0,0.52,0.69,0.61,52,69,61,48,31,39
"1147",6,147,0,0,0,1,10,990,1083,"SU",1,0.71,0.69,0.7,71,69,70,29,31,30
"1148",6,148,0,1,0,0,0,990,683,"SU",0,0.61,0.73,0.57,61,73,57,39,27,43
"1149",6,149,0,0,0,1,10,1000,1000,"SU",1,0.63,0.69,0.69,63,69,69,37,31,31
"1150",6,150,0,0,0,1,10,1010,1316,"SU",1,0.76,0.67,0.75,76,67,75,24,33,25
"1151",6,151,0,0,0,1,10,1020,616,"SU",1,0.75,0.65,0.8,75,65,80,25,35,20
"1152",6,152,0,0,0,1,10,1030,900,"SU",1,0.86,0.71,0.8,86,71,80,14,29,20
"1153",6,153,0,0,0,1,10,1040,633,"SU",1,0.85,0.7,0.89,85,70,89,15,30,11
"1154",6,154,0,1,1,1,10,1050,850,"SU",1,0.41,0.71,0.43,41,71,43,59,29,57
"1155",6,155,0,0,0,1,10,1060,1166,"SU",1,0.72,0.75,0.83,72,75,83,28,25,17
"1156",6,156,0,1,1,1,10,1070,3366,"SU",1,0.43,0.68,0.53,43,68,53,57,32,47
"1157",6,157,0,0,0,1,10,1080,783,"SU",1,0.63,0.64,0.74,63,64,74,37,36,26
"1158",6,158,0,1,1,1,10,1090,1683,"SU",1,0.43,0.67,0.69,43,67,69,57,33,31
"1159",6,159,0,1,1,1,10,1100,2233,"SU",1,0.63,0.66,0.79,63,66,79,37,34,21
"1160",6,160,0,1,1,1,10,1110,1150,"SU",1,0.7,0.71,0.75,70,71,75,30,29,25
"1161",6,161,0,0,1,0,0,1110,1233,"SU",0,0.52,0.65,0.53,52,65,53,48,35,47
"1162",6,162,0,1,1,1,10,1120,5183,"SU",1,0.61,0.69,0.7,61,69,70,39,31,30
"1163",6,163,0,0,1,0,0,1120,1300,"SU",0,0.57,0.73,0.58,57,73,58,43,27,42
"1164",6,164,0,1,1,1,10,1130,1800,"SU",1,0.7,0.73,0.71,70,73,71,30,27,29
"1165",6,165,0,0,0,1,10,1140,3216,"SU",1,0.58,0.68,0.57,58,68,57,42,32,43
"1166",6,166,0,0,0,1,10,1150,950,"SU",1,0.64,0.69,0.7,64,69,70,36,31,30
"1167",6,167,0,1,0,0,0,1150,666,"SU",0,0.52,0.74,0.59,52,74,59,48,26,41
"1168",6,168,0,1,1,1,10,1160,2833,"SU",1,0.69,0.58,0.64,69,58,64,31,42,36
"1169",6,169,0,0,1,0,0,1160,1850,"SU",0,0.59,0.66,0.6,59,66,60,41,34,40
"1170",6,170,0,1,1,1,10,1170,2500,"SU",1,0.65,0.69,0.68,65,69,68,35,31,32
"1171",6,171,0,1,1,1,10,1180,5083,"SU",1,0.78,0.71,0.74,78,71,74,22,29,26
"1172",6,172,0,0,0,1,10,1190,1900,"SU",1,0.45,0.67,0.56,45,67,56,55,33,44
"1173",6,173,0,1,0,0,0,1190,1466,"SU",0,0.72,0.62,0.72,72,62,72,28,38,28
"1174",6,174,0,0,0,1,10,1200,4000,"SU",1,0.55,0.74,0.57,55,74,57,45,26,43
"1175",6,175,0,0,0,1,10,1210,1066,"SU",1,0.61,0.73,0.72,61,73,72,39,27,28
"1176",6,176,0,0,0,1,10,1220,933,"SU",1,0.79,0.68,0.79,79,68,79,21,32,21
"1177",6,177,0,0,0,1,10,1230,683,"SU",1,0.84,0.74,0.81,84,74,81,16,26,19
"1178",6,178,0,1,0,0,0,1230,1500,"SU",0,0.58,0.67,0.42,58,67,42,42,33,58
"1179",6,179,0,0,0,1,10,1240,1950,"SU",1,0.77,0.75,0.7,77,75,70,23,25,30
"1180",6,180,0,0,0,1,10,1250,683,"SU",1,0.81,0.74,0.79,81,74,79,19,26,21
"1181",6,181,0,0,1,0,0,1250,1750,"SU",0,0.84,0.63,0.87,84,63,87,16,37,13
"1182",6,182,0,1,1,1,10,1260,816,"SU",1,0.4,0.71,0.38,40,71,38,60,29,62
"1183",6,183,0,1,1,1,10,1270,866,"SU",1,0.53,0.69,0.54,53,69,54,47,31,46
"1184",6,184,0,0,1,0,0,1270,783,"SU",0,0.69,0.66,0.64,69,66,64,31,34,36
"1185",6,185,0,1,0,0,0,1270,1366,"SU",0,0.58,0.66,0.6,58,66,60,42,34,40
"1186",6,186,0,1,1,1,10,1280,783,"SU",1,0.69,0.7,0.78,69,70,78,31,30,22
"1187",6,187,0,0,1,0,0,1280,1083,"SU",0,0.61,0.7,0.59,61,70,59,39,30,41
"1188",6,188,0,0,0,1,10,1290,1683,"SU",1,0.63,0.65,0.71,63,65,71,37,35,29
"1189",6,189,0,0,0,1,10,1300,683,"SU",1,0.77,0.71,0.77,77,71,77,23,29,23
"1190",6,190,0,1,0,0,0,1300,1050,"SU",0,0.44,0.69,0.57,44,69,57,56,31,43
"1191",6,191,0,1,0,0,0,1300,1366,"SU",0,0.65,0.71,0.65,65,71,65,35,29,35
"1192",6,192,0,1,1,1,10,1310,1200,"SU",1,0.75,0.68,0.75,75,68,75,25,32,25
"1193",6,193,0,1,0,0,0,1310,1666,"SU",0,0.79,0.66,0.77,79,66,77,21,34,23
"1194",6,194,0,1,1,1,10,1320,1233,"SU",1,0.78,0.69,0.82,78,69,82,22,31,18
"1195",6,195,0,0,1,0,0,1320,966,"SU",0,0.51,0.65,0.47,51,65,47,49,35,53
"1196",6,196,0,1,0,0,0,1320,1666,"SU",0,0.71,0.74,0.69,71,74,69,29,26,31
"1197",6,197,0,0,0,1,10,1330,883,"SU",1,0.52,0.6,0.5,52,60,50,48,40,50
"1198",6,198,0,1,1,1,10,1340,1066,"SU",1,0.7,0.73,0.74,70,73,74,30,27,26
"1199",6,199,0,1,1,1,10,1350,1500,"SU",1,0.71,0.69,0.73,71,69,73,29,31,27
"1200",6,200,0,1,0,0,0,1350,2450,"SU",0,0.73,0.69,0.81,73,69,81,27,31,19
"1201",7,1,0,0,1,0,0,0,1134,"SU",0,0.56,0.45,0.46,56,45,46,44,55,54
"1202",7,2,0,1,1,1,10,10,1216,"SU",1,0.41,0.45,0.38,41,45,38,59,55,62
"1203",7,3,0,1,1,1,10,20,567,"SU",1,0.5,0.53,0.57,50,53,57,50,47,43
"1204",7,4,0,0,1,0,0,20,666,"SU",0,0.53,0.44,0.57,53,44,57,47,56,43
"1205",7,5,0,1,1,1,10,30,831,"SU",1,0.42,0.45,0.51,42,45,51,58,55,49
"1206",7,6,0,0,1,0,0,30,666,"SU",0,0.52,0.48,0.62,52,48,62,48,52,38
"1207",7,7,0,1,0,0,0,30,668,"SU",0,0.56,0.52,0.52,56,52,52,44,48,48
"1208",7,8,0,0,0,1,10,40,633,"SU",1,0.57,0.49,0.67,57,49,67,43,51,33
"1209",7,9,0,0,1,0,0,40,616,"SU",0,0.49,0.65,0.65,49,65,65,51,35,35
"1210",7,10,0,0,0,1,10,50,550,"SU",1,0.54,0.51,0.51,54,51,51,46,49,49
"1211",7,11,0,1,1,1,10,60,683,"SU",1,0.47,0.45,0.53,47,45,53,53,55,47
"1212",7,12,0,0,0,1,10,70,716,"SU",1,0.52,0.56,0.57,52,56,57,48,44,43
"1213",7,13,0,0,0,1,10,80,633,"SU",1,0.51,0.61,0.53,51,61,53,49,39,47
"1214",7,14,0,0,0,1,10,90,616,"SU",1,0.58,0.6,0.55,58,60,55,42,40,45
"1215",7,15,0,0,0,1,10,100,816,"SU",1,0.48,0.53,0.52,48,53,52,52,47,48
"1216",7,16,0,0,1,0,0,100,750,"SU",0,0.57,0.57,0.53,57,57,53,43,43,47
"1217",7,17,0,1,1,1,10,110,666,"SU",1,0.47,0.33,0.43,47,33,43,53,67,57
"1218",7,18,0,0,0,1,10,120,550,"SU",1,0.57,0.49,0.59,57,49,59,43,51,41
"1219",7,19,0,1,1,1,10,130,633,"SU",1,0.52,0.4,0.54,52,40,54,48,60,46
"1220",7,20,0,1,1,1,10,140,1116,"SU",1,0.46,0.42,0.56,46,42,56,54,58,44
"1221",7,21,0,0,0,1,10,150,583,"SU",1,0.58,0.57,0.5,58,57,50,42,43,50
"1222",7,22,0,1,1,1,10,160,800,"SU",1,0.44,0.41,0.61,44,41,61,56,59,39
"1223",7,23,0,0,0,1,10,170,533,"SU",1,0.5,0.58,0.72,50,58,72,50,42,28
"1224",7,24,0,1,1,1,10,180,650,"SU",1,0.51,0.4,0.52,51,40,52,49,60,48
"1225",7,25,0,0,0,1,10,190,616,"SU",1,0.58,0.59,0.56,58,59,56,42,41,44
"1226",7,26,0,0,1,0,0,190,550,"SU",0,0.51,0.51,0.66,51,51,66,49,49,34
"1227",7,27,0,1,1,1,10,200,666,"SU",1,0.46,0.32,0.61,46,32,61,54,68,39
"1228",7,28,0,1,0,0,0,200,833,"SU",0,0.44,0.37,0.52,44,37,52,56,63,48
"1229",7,29,0,1,0,0,0,200,766,"SU",0,0.39,0.41,0.52,39,41,52,61,59,48
"1230",7,30,0,0,0,1,10,210,717,"SU",1,0.52,0.57,0.57,52,57,57,48,43,43
"1231",7,31,0,0,0,1,10,220,800,"SU",1,0.62,0.52,0.54,62,52,54,38,48,46
"1232",7,32,0,1,0,0,0,220,616,"SU",0,0.48,0.38,0.57,48,38,57,52,62,43
"1233",7,33,0,1,1,1,10,230,566,"SU",1,0.54,0.38,0.58,54,38,58,46,62,42
"1234",7,34,0,0,0,1,10,240,666,"SU",1,0.59,0.57,0.63,59,57,63,41,43,37
"1235",7,35,0,1,1,1,10,250,583,"SU",1,0.47,0.51,0.51,47,51,51,53,49,49
"1236",7,36,0,1,0,0,0,250,1033,"SU",0,0.42,0.48,0.62,42,48,62,58,52,38
"1237",7,37,0,1,0,0,0,250,516,"SU",0,0.42,0.43,0.57,42,43,57,58,57,43
"1238",7,38,0,1,1,1,10,260,666,"SU",1,0.58,0.53,0.5,58,53,50,42,47,50
"1239",7,39,0,0,0,1,10,270,616,"SU",1,0.51,0.48,0.57,51,48,57,49,52,43
"1240",7,40,0,0,0,1,10,280,700,"SU",1,0.42,0.51,0.5,42,51,50,58,49,50
"1241",7,41,0,1,1,1,10,290,800,"SU",1,0.46,0.4,0.62,46,40,62,54,60,38
"1242",7,42,0,0,0,1,10,300,600,"SU",1,0.43,0.5,0.59,43,50,59,57,50,41
"1243",7,43,0,1,0,0,0,300,766,"SU",0,0.45,0.49,0.53,45,49,53,55,51,47
"1244",7,44,0,1,0,0,0,300,600,"SU",0,0.45,0.38,0.58,45,38,58,55,62,42
"1245",7,45,0,0,0,1,10,310,750,"SU",1,0.52,0.58,0.55,52,58,55,48,42,45
"1246",7,46,0,1,0,0,0,310,600,"SU",0,0.45,0.5,0.6,45,50,60,55,50,40
"1247",7,47,0,0,0,1,10,320,1250,"SU",1,0.47,0.43,0.47,47,43,47,53,57,53
"1248",7,48,0,0,0,1,10,330,616,"SU",1,0.43,0.56,0.57,43,56,57,57,44,43
"1249",7,49,0,1,0,0,0,330,633,"SU",0,0.48,0.48,0.55,48,48,55,52,52,45
"1250",7,50,0,0,1,0,0,330,883,"SU",0,0.54,0.57,0.62,54,57,62,46,43,38
"1251",7,51,0,1,1,1,10,340,1050,"SU",1,0.5,0.49,0.57,50,49,57,50,51,43
"1252",7,52,0,1,1,1,10,350,783,"SU",1,0.56,0.44,0.56,56,44,56,44,56,44
"1253",7,53,0,1,1,1,10,360,1233,"SU",1,0.43,0.47,0.66,43,47,66,57,53,34
"1254",7,54,0,0,0,1,10,370,800,"SU",1,0.52,0.54,0.57,52,54,57,48,46,43
"1255",7,55,0,1,1,1,10,380,550,"SU",1,0.55,0.53,0.64,55,53,64,45,47,36
"1256",7,56,0,0,0,1,10,390,900,"SU",1,0.52,0.53,0.43,52,53,43,48,47,57
"1257",7,57,0,0,0,1,10,400,967,"SU",1,0.49,0.52,0.55,49,52,55,51,48,45
"1258",7,58,0,0,1,0,0,400,633,"SU",0,0.53,0.58,0.61,53,58,61,47,42,39
"1259",7,59,0,0,0,1,10,410,566,"SU",1,0.46,0.54,0.49,46,54,49,54,46,51
"1260",7,60,0,1,0,0,0,410,816,"SU",0,0.47,0.41,0.49,47,41,49,53,59,51
"1261",7,61,0,1,0,0,0,410,616,"SU",0,0.52,0.48,0.52,52,48,52,48,52,48
"1262",7,62,0,0,0,1,10,420,566,"SU",1,0.47,0.52,0.59,47,52,59,53,48,41
"1263",7,63,0,1,0,0,0,420,550,"SU",0,0.45,0.43,0.54,45,43,54,55,57,46
"1264",7,64,0,0,0,1,10,430,616,"SU",1,0.48,0.56,0.58,48,56,58,52,44,42
"1265",7,65,0,0,1,0,0,430,783,"SU",0,0.53,0.52,0.57,53,52,57,47,48,43
"1266",7,66,0,0,1,0,0,430,800,"SU",0,0.49,0.54,0.61,49,54,61,51,46,39
"1267",7,67,0,0,1,0,0,430,950,"SU",0,0.56,0.58,0.56,56,58,56,44,42,44
"1268",7,68,0,1,0,0,0,430,716,"SU",0,0.34,0.42,0.58,34,42,58,66,58,42
"1269",7,69,0,0,1,0,0,430,750,"SU",0,0.63,0.53,0.64,63,53,64,37,47,36
"1270",7,70,0,0,0,1,10,440,516,"SU",1,0.56,0.6,0.57,56,60,57,44,40,43
"1271",7,71,0,0,0,1,10,450,783,"SU",1,0.61,0.6,0.65,61,60,65,39,40,35
"1272",7,72,0,1,1,1,10,460,566,"SU",1,0.5,0.32,0.55,50,32,55,50,68,45
"1273",7,73,0,1,0,0,0,460,766,"SU",0,0.46,0.43,0.57,46,43,57,54,57,43
"1274",7,74,0,0,0,1,10,470,950,"SU",1,0.6,0.57,0.47,60,57,47,40,43,53
"1275",7,75,0,1,1,1,10,480,650,"SU",1,0.36,0.35,0.57,36,35,57,64,65,43
"1276",7,76,0,0,1,0,0,480,816,"SU",0,0.53,0.58,0.63,53,58,63,47,42,37
"1277",7,77,0,0,0,1,10,490,733,"SU",1,0.53,0.69,0.53,53,69,53,47,31,47
"1278",7,78,0,1,0,0,0,490,666,"SU",0,0.4,0.39,0.53,40,39,53,60,61,47
"1279",7,79,0,1,0,0,0,490,1050,"SU",0,0.4,0.38,0.59,40,38,59,60,62,41
"1280",7,80,0,1,0,0,0,490,600,"SU",0,0.4,0.45,0.54,40,45,54,60,55,46
"1281",7,81,0,0,0,1,10,500,483,"SU",1,0.46,0.63,0.59,46,63,59,54,37,41
"1282",7,82,0,0,0,1,10,510,550,"SU",1,0.58,0.56,0.54,58,56,54,42,44,46
"1283",7,83,0,1,0,0,0,510,583,"SU",0,0.44,0.46,0.55,44,46,55,56,54,45
"1284",7,84,0,1,0,0,0,510,533,"SU",0,0.42,0.44,0.59,42,44,59,58,56,41
"1285",7,85,0,0,0,1,10,520,666,"SU",1,0.57,0.6,0.65,57,60,65,43,40,35
"1286",7,86,0,0,1,0,0,520,583,"SU",0,0.5,0.67,0.53,50,67,53,50,33,47
"1287",7,87,0,0,0,1,10,530,766,"SU",1,0.57,0.7,0.66,57,70,66,43,30,34
"1288",7,88,0,1,1,1,10,540,583,"SU",1,0.44,0.38,0.56,44,38,56,56,62,44
"1289",7,89,0,1,0,0,0,540,550,"SU",0,0.51,0.5,0.55,51,50,55,49,50,45
"1290",7,90,0,1,0,0,0,540,550,"SU",0,0.45,0.45,0.6,45,45,60,55,55,40
"1291",7,91,0,1,0,0,0,540,916,"SU",0,0.42,0.42,0.52,42,42,52,58,58,48
"1292",7,92,0,1,0,0,0,540,600,"SU",0,0.5,0.46,0.58,50,46,58,50,54,42
"1293",7,93,0,1,0,0,0,540,533,"SU",0,0.47,0.47,0.58,47,47,58,53,53,42
"1294",7,94,0,1,0,0,0,540,483,"SU",0,0.51,0.47,0.62,51,47,62,49,53,38
"1295",7,95,0,0,0,1,10,550,566,"SU",1,0.46,0.49,0.49,46,49,49,54,51,51
"1296",7,96,0,1,1,1,10,560,816,"SU",1,0.58,0.45,0.65,58,45,65,42,55,35
"1297",7,97,0,1,0,0,0,560,1350,"SU",0,0.46,0.48,0.64,46,48,64,54,52,36
"1298",7,98,0,0,0,1,10,570,700,"SU",1,0.5,0.59,0.54,50,59,54,50,41,46
"1299",7,99,0,1,1,1,10,580,850,"SU",1,0.52,0.43,0.57,52,43,57,48,57,43
"1300",7,100,0,0,0,1,10,590,616,"SU",1,0.4,0.43,0.57,40,43,57,60,57,43
"1301",7,101,1,0,1,0,0,590,716,"SU",0,0.51,0.46,0.5,51,46,50,49,54,50
"1302",7,102,1,1,1,1,10,600,666,"SU",1,0.52,0.47,0.41,52,47,41,48,53,59
"1303",7,103,1,1,1,1,10,610,650,"SU",1,0.5,0.51,0.46,50,51,46,50,49,54
"1304",7,104,1,1,1,1,10,620,716,"SU",1,0.44,0.56,0.5,44,56,50,56,44,50
"1305",7,105,1,1,1,1,10,630,566,"SU",1,0.49,0.57,0.45,49,57,45,51,43,55
"1306",7,106,1,0,1,0,0,630,633,"SU",0,0.37,0.41,0.32,37,41,32,63,59,68
"1307",7,107,1,1,1,1,10,640,650,"SU",1,0.48,0.45,0.41,48,45,41,52,55,59
"1308",7,108,1,0,1,0,0,640,800,"SU",0,0.45,0.4,0.55,45,40,55,55,60,45
"1309",7,109,1,0,1,0,0,640,650,"SU",0,0.39,0.33,0.47,39,33,47,61,67,53
"1310",7,110,1,1,0,0,0,640,800,"SU",0,0.42,0.52,0.44,42,52,44,58,48,56
"1311",7,111,1,1,1,1,10,650,716,"SU",1,0.48,0.51,0.48,48,51,48,52,49,52
"1312",7,112,1,1,1,1,10,660,600,"SU",1,0.55,0.55,0.44,55,55,44,45,45,56
"1313",7,113,1,0,0,1,10,670,799,"SU",1,0.47,0.39,0.43,47,39,43,53,61,57
"1314",7,114,1,1,1,1,10,680,566,"SU",1,0.51,0.58,0.45,51,58,45,49,42,55
"1315",7,115,1,0,1,0,0,680,683,"SU",0,0.42,0.46,0.53,42,46,53,58,54,47
"1316",7,116,1,0,0,1,10,690,716,"SU",1,0.51,0.34,0.57,51,34,57,49,66,43
"1317",7,117,1,1,0,0,0,690,1016,"SU",0,0.49,0.49,0.54,49,49,54,51,51,46
"1318",7,118,1,0,1,0,0,690,766,"SU",0,0.44,0.41,0.49,44,41,49,56,59,51
"1319",7,119,1,1,0,0,0,690,566,"SU",0,0.5,0.61,0.5,50,61,50,50,39,50
"1320",7,120,1,0,1,0,0,690,566,"SU",0,0.51,0.39,0.47,51,39,47,49,61,53
"1321",7,121,1,1,0,0,0,690,866,"SU",0,0.54,0.65,0.46,54,65,46,46,35,54
"1322",7,122,1,0,1,0,0,690,500,"SU",0,0.51,0.36,0.56,51,36,56,49,64,44
"1323",7,123,1,1,1,1,10,700,633,"SU",1,0.5,0.46,0.57,50,46,57,50,54,43
"1324",7,124,1,1,1,1,10,710,700,"SU",1,0.42,0.55,0.49,42,55,49,58,45,51
"1325",7,125,1,0,0,1,10,720,516,"SU",1,0.51,0.46,0.42,51,46,42,49,54,58
"1326",7,126,1,1,1,1,10,730,750,"SU",1,0.44,0.56,0.51,44,56,51,56,44,49
"1327",7,127,1,1,0,0,0,730,566,"SU",0,0.55,0.53,0.5,55,53,50,45,47,50
"1328",7,128,1,0,0,1,10,740,483,"SU",1,0.49,0.35,0.59,49,35,59,51,65,41
"1329",7,129,1,0,0,1,10,750,816,"SU",1,0.47,0.41,0.6,47,41,60,53,59,40
"1330",7,130,1,0,0,1,10,760,733,"SU",1,0.6,0.57,0.55,60,57,55,40,43,45
"1331",7,131,1,1,0,0,0,760,633,"SU",0,0.49,0.48,0.51,49,48,51,51,52,49
"1332",7,132,1,0,0,1,10,770,566,"SU",1,0.42,0.54,0.57,42,54,57,58,46,43
"1333",7,133,1,0,0,1,10,780,633,"SU",1,0.43,0.4,0.45,43,40,45,57,60,55
"1334",7,134,1,0,1,0,0,780,566,"SU",0,0.55,0.4,0.53,55,40,53,45,60,47
"1335",7,135,1,0,0,1,10,790,583,"SU",1,0.45,0.46,0.42,45,46,42,55,54,58
"1336",7,136,1,1,0,0,0,790,716,"SU",0,0.51,0.42,0.55,51,42,55,49,58,45
"1337",7,137,1,0,0,1,10,800,500,"SU",1,0.55,0.48,0.44,55,48,44,45,52,56
"1338",7,138,1,1,0,0,0,800,550,"SU",0,0.46,0.47,0.61,46,47,61,54,53,39
"1339",7,139,1,0,0,1,10,810,600,"SU",1,0.52,0.55,0.53,52,55,53,48,45,47
"1340",7,140,1,1,1,1,10,820,533,"SU",1,0.52,0.57,0.49,52,57,49,48,43,51
"1341",7,141,1,0,1,0,0,820,533,"SU",0,0.39,0.56,0.57,39,56,57,61,44,43
"1342",7,142,1,1,0,0,0,820,800,"SU",0,0.49,0.52,0.52,49,52,52,51,48,48
"1343",7,143,1,0,1,0,0,820,716,"SU",0,0.41,0.57,0.54,41,57,54,59,43,46
"1344",7,144,1,1,1,1,10,830,1116,"SU",1,0.49,0.49,0.61,49,49,61,51,51,39
"1345",7,145,1,1,0,0,0,830,633,"SU",0,0.48,0.48,0.51,48,48,51,52,52,49
"1346",7,146,1,0,1,0,0,830,600,"SU",0,0.54,0.42,0.56,54,42,56,46,58,44
"1347",7,147,1,1,1,1,10,840,766,"SU",1,0.53,0.5,0.57,53,50,57,47,50,43
"1348",7,148,1,1,0,0,0,840,566,"SU",0,0.5,0.55,0.59,50,55,59,50,45,41
"1349",7,149,1,0,0,1,10,850,666,"SU",1,0.49,0.44,0.42,49,44,42,51,56,58
"1350",7,150,1,1,1,1,10,860,550,"SU",1,0.48,0.58,0.49,48,58,49,52,42,51
"1351",7,151,1,1,1,1,10,870,666,"SU",1,0.51,0.57,0.53,51,57,53,49,43,47
"1352",7,152,1,1,1,1,10,880,566,"SU",1,0.45,0.51,0.51,45,51,51,55,49,49
"1353",7,153,1,0,1,0,0,880,650,"SU",0,0.39,0.36,0.48,39,36,48,61,64,52
"1354",7,154,1,1,0,0,0,880,533,"SU",0,0.61,0.61,0.58,61,61,58,39,39,42
"1355",7,155,1,1,0,0,0,880,916,"SU",0,0.42,0.49,0.52,42,49,52,58,51,48
"1356",7,156,1,0,0,1,10,890,683,"SU",1,0.46,0.48,0.59,46,48,59,54,52,41
"1357",7,157,1,1,0,0,0,890,633,"SU",0,0.49,0.58,0.52,49,58,52,51,42,48
"1358",7,158,1,0,0,1,10,900,850,"SU",1,0.5,0.37,0.56,50,37,56,50,63,44
"1359",7,159,1,0,0,1,10,910,600,"SU",1,0.54,0.41,0.49,54,41,49,46,59,51
"1360",7,160,1,0,0,1,10,920,816,"SU",1,0.48,0.39,0.58,48,39,58,52,61,42
"1361",7,161,1,0,0,1,10,930,616,"SU",1,0.52,0.52,0.57,52,52,57,48,48,43
"1362",7,162,1,0,1,0,0,930,616,"SU",0,0.61,0.46,0.44,61,46,44,39,54,56
"1363",7,163,1,1,0,0,0,930,583,"SU",0,0.57,0.48,0.55,57,48,55,43,52,45
"1364",7,164,1,1,0,0,0,930,516,"SU",0,0.47,0.55,0.52,47,55,52,53,45,48
"1365",7,165,1,0,1,0,0,930,566,"SU",0,0.54,0.41,0.58,54,41,58,46,59,42
"1366",7,166,1,0,0,1,10,940,750,"SU",1,0.53,0.39,0.48,53,39,48,47,61,52
"1367",7,167,1,0,0,1,10,950,550,"SU",1,0.49,0.49,0.46,49,49,46,51,51,54
"1368",7,168,1,0,1,0,0,950,950,"SU",0,0.57,0.45,0.57,57,45,57,43,55,43
"1369",7,169,1,0,0,1,10,960,766,"SU",1,0.5,0.47,0.57,50,47,57,50,53,43
"1370",7,170,1,1,1,1,10,970,783,"SU",1,0.49,0.51,0.51,49,51,51,51,49,49
"1371",7,171,1,1,0,0,0,970,616,"SU",0,0.48,0.45,0.57,48,45,57,52,55,43
"1372",7,172,1,1,1,1,10,980,650,"SU",1,0.44,0.5,0.57,44,50,57,56,50,43
"1373",7,173,1,0,1,0,0,980,566,"SU",0,0.43,0.53,0.52,43,53,52,57,47,48
"1374",7,174,1,0,1,0,0,980,900,"SU",0,0.56,0.51,0.43,56,51,43,44,49,57
"1375",7,175,1,0,0,1,10,990,666,"SU",1,0.57,0.46,0.58,57,46,58,43,54,42
"1376",7,176,1,0,0,1,10,1000,783,"SU",1,0.58,0.43,0.53,58,43,53,42,57,47
"1377",7,177,1,1,0,0,0,1000,650,"SU",0,0.53,0.48,0.5,53,48,50,47,52,50
"1378",7,178,1,1,1,1,10,1010,683,"SU",1,0.52,0.32,0.43,52,32,43,48,68,57
"1379",7,179,1,1,1,1,10,1020,1216,"SU",1,0.49,0.48,0.56,49,48,56,51,52,44
"1380",7,180,1,1,0,0,0,1020,933,"SU",0,0.48,0.52,0.51,48,52,51,52,48,49
"1381",7,181,1,0,1,0,0,1020,816,"SU",0,0.53,0.44,0.56,53,44,56,47,56,44
"1382",7,182,1,0,0,1,10,1030,700,"SU",1,0.52,0.47,0.62,52,47,62,48,53,38
"1383",7,183,1,0,0,1,10,1040,566,"SU",1,0.5,0.43,0.59,50,43,59,50,57,41
"1384",7,184,1,0,0,1,10,1050,716,"SU",1,0.51,0.44,0.5,51,44,50,49,56,50
"1385",7,185,1,0,0,1,10,1060,566,"SU",1,0.51,0.53,0.69,51,53,69,49,47,31
"1386",7,186,1,1,0,0,0,1060,533,"SU",0,0.43,0.4,0.55,43,40,55,57,60,45
"1387",7,187,1,1,0,0,0,1060,583,"SU",0,0.48,0.43,0.47,48,43,47,52,57,53
"1388",7,188,1,1,1,1,10,1070,533,"SU",1,0.47,0.52,0.53,47,52,53,53,48,47
"1389",7,189,1,1,1,1,10,1080,633,"SU",1,0.49,0.54,0.52,49,54,52,51,46,48
"1390",7,190,1,1,1,1,10,1090,766,"SU",1,0.42,0.47,0.6,42,47,60,58,53,40
"1391",7,191,1,1,1,1,10,1100,666,"SU",1,0.5,0.57,0.48,50,57,48,50,43,52
"1392",7,192,1,0,1,0,0,1100,583,"SU",0,0.42,0.33,0.49,42,33,49,58,67,51
"1393",7,193,1,1,1,1,10,1110,633,"SU",1,0.49,0.57,0.51,49,57,51,51,43,49
"1394",7,194,1,0,1,0,0,1110,650,"SU",0,0.52,0.48,0.57,52,48,57,48,52,43
"1395",7,195,1,0,1,0,0,1110,583,"SU",0,0.54,0.52,0.53,54,52,53,46,48,47
"1396",7,196,1,0,1,0,0,1110,533,"SU",0,0.48,0.47,0.51,48,47,51,52,53,49
"1397",7,197,1,1,0,0,0,1110,750,"SU",0,0.45,0.45,0.55,45,45,55,55,55,45
"1398",7,198,1,0,1,0,0,1110,1333,"SU",0,0.44,0.48,0.55,44,48,55,56,52,45
"1399",7,199,1,1,0,0,0,1110,600,"SU",0,0.46,0.47,0.54,46,47,54,54,53,46
"1400",7,200,1,1,1,1,10,1120,566,"SU",1,0.52,0.54,0.49,52,54,49,48,46,51
"1401",8,1,1,1,1,1,10,10,1050,"SU",1,0.54,0.61,0.38,54,61,38,46,39,62
"1402",8,2,1,0,1,0,0,10,2566,"SU",0,0.47,0.49,0.55,47,49,55,53,51,45
"1403",8,3,1,1,1,1,10,20,766,"SU",1,0.42,0.57,0.62,42,57,62,58,43,38
"1404",8,4,1,1,1,1,10,30,700,"SU",1,0.57,0.62,0.7,57,62,70,43,38,30
"1405",8,5,1,0,1,0,0,30,750,"SU",0,0.52,0.55,0.71,52,55,71,48,45,29
"1406",8,6,1,1,1,1,10,40,833,"SU",1,0.52,0.74,0.64,52,74,64,48,26,36
"1407",8,7,1,1,1,1,10,50,750,"SU",1,0.5,0.65,0.75,50,65,75,50,35,25
"1408",8,8,1,0,0,1,10,60,883,"SU",1,0.51,0.58,0.7,51,58,70,49,42,30
"1409",8,9,1,1,1,1,10,70,733,"SU",1,0.59,0.59,0.7,59,59,70,41,41,30
"1410",8,10,1,0,1,0,0,70,750,"SU",0,0.62,0.56,0.7,62,56,70,38,44,30
"1411",8,11,1,0,1,0,0,70,916,"SU",0,0.58,0.74,0.75,58,74,75,42,26,25
"1412",8,12,1,1,1,1,10,80,650,"SU",1,0.6,0.68,0.73,60,68,73,40,32,27
"1413",8,13,1,0,0,1,10,90,850,"SU",1,0.57,0.69,0.78,57,69,78,43,31,22
