SubNo TrialNo Mapping WhiteProp State Resp Acc Reward Balance ReactionTime
18 1 1 0.4545 0 0 1 10 10 816
18 2 1 0.4545 0 0 1 10 20 750
18 3 1 0.4545 0 0 1 10 30 1000
18 4 1 0.4545 0 0 1 10 40 716
18 5 1 0.4545 0 0 1 10 50 933
18 6 1 0.5142 1 1 1 10 60 1116
18 7 1 0.4545 0 0 1 10 70 666
18 8 1 0.5142 1 0 0 0 70 833
18 9 1 0.5142 1 1 1 10 80 1000
18 10 1 0.4545 0 0 1 10 90 666
18 11 1 0.4545 0 1 0 0 90 883
18 12 1 0.4545 0 0 1 10 100 1083
18 13 1 0.4545 0 0 1 10 110 1216
18 14 1 0.5142 1 1 1 10 120 933
18 15 1 0.5142 1 1 1 10 130 1350
18 16 1 0.4545 0 0 1 10 140 1066
18 17 1 0.4545 0 0 1 10 150 1150
18 18 1 0.4545 0 0 1 10 160 1033
18 19 1 0.5142 1 1 1 10 170 1150
18 20 1 0.5142 1 1 1 10 180 750
18 21 1 0.5142 1 1 1 10 190 833
18 22 1 0.4545 0 0 1 10 200 883
18 23 1 0.5142 1 1 1 10 210 983
18 24 1 0.5142 1 1 1 10 220 1050
18 25 1 0.5142 1 1 1 10 230 1033
18 26 1 0.5142 1 0 0 0 230 650
18 27 1 0.5142 1 1 1 10 240 633
18 28 1 0.4545 0 0 1 10 250 683
18 29 1 0.4545 0 0 1 10 260 583
18 30 1 0.4545 0 1 0 0 260 1516
18 31 1 0.4545 0 0 1 10 270 600
18 32 1 0.5142 1 1 1 10 280 816
18 33 1 0.4545 0 0 1 10 290 3533
18 34 1 0.4545 0 1 0 0 290 733
18 35 1 0.4545 0 0 1 10 300 750
18 36 1 0.4545 0 0 1 10 310 533
18 37 1 0.5142 1 1 1 10 320 683
18 38 1 0.5142 1 1 1 10 330 850
18 39 1 0.5142 1 1 1 10 340 733
18 40 1 0.4545 0 0 1 10 350 633
18 41 1 0.5142 1 0 0 0 350 633
18 42 1 0.4545 0 0 1 10 360 716
18 43 1 0.5142 1 1 1 10 370 533
18 44 1 0.5142 1 1 1 10 380 616
18 45 1 0.5142 1 1 1 10 390 550
18 46 1 0.4545 0 1 0 0 390 950
18 47 1 0.4545 0 0 1 10 400 616
18 48 1 0.5142 1 1 1 10 410 1600
18 49 1 0.4545 0 0 1 10 420 3016
18 50 1 0.4545 0 0 1 10 430 1017
18 51 1 0.4545 0 0 1 10 440 733
18 52 1 0.4545 0 0 1 10 450 1050
18 53 1 0.5142 1 1 1 10 460 816
18 54 1 0.5142 1 1 1 10 470 900
18 55 1 0.5142 1 1 1 10 480 850
18 56 1 0.4545 0 0 1 10 490 1050
18 57 1 0.4545 0 0 1 10 500 1000
18 58 1 0.5142 1 1 1 10 510 783
18 59 1 0.5142 1 1 1 10 520 633
18 60 1 0.4545 0 0 1 10 530 1466
18 61 1 0.5142 1 1 1 10 540 583
18 62 1 0.5142 1 1 1 10 550 800
18 63 1 0.5142 1 1 1 10 560 700
18 64 1 0.4545 0 0 1 10 570 683
18 65 1 0.5142 1 1 1 10 580 766
18 66 1 0.5142 1 1 1 10 590 766
18 67 1 0.4545 0 0 1 10 600 1150
18 68 1 0.4545 0 0 1 10 610 883
18 69 1 0.5142 1 1 1 10 620 950
18 70 1 0.5142 1 1 1 10 630 783
18 71 1 0.4545 0 0 1 10 640 566
18 72 1 0.4545 0 1 0 0 640 766
18 73 1 0.5142 1 1 1 10 650 783
18 74 1 0.5142 1 1 1 10 660 750
18 75 1 0.5142 1 1 1 10 670 900
18 76 1 0.5142 1 0 0 0 670 750
18 77 1 0.4545 0 0 1 10 680 583
18 78 1 0.5142 1 1 1 10 690 716
18 79 1 0.5142 1 1 1 10 700 600
18 80 1 0.4545 0 0 1 10 710 800
18 81 1 0.4545 0 0 1 10 720 1250
18 82 1 0.5142 1 1 1 10 730 833
18 83 1 0.5142 1 1 1 10 740 966
18 84 1 0.5142 1 1 1 10 750 666
18 85 1 0.4545 0 0 1 10 760 700
18 86 1 0.4545 0 0 1 10 770 533
18 87 1 0.4545 0 0 1 10 780 1000
18 88 1 0.5142 1 1 1 10 790 933
18 89 1 0.4545 0 0 1 10 800 600
18 90 1 0.4545 0 0 1 10 810 533
18 91 1 0.4545 0 0 1 10 820 600
18 92 1 0.4545 0 0 1 10 830 583
18 93 1 0.5142 1 1 1 10 840 816
18 94 1 0.5142 1 1 1 10 850 633
18 95 1 0.5142 1 1 1 10 860 866
18 96 1 0.5142 1 1 1 10 870 833
18 97 1 0.4545 0 0 1 10 880 1033
18 98 1 0.4545 0 0 1 10 890 533
18 99 1 0.5142 1 0 0 0 890 1349
18 100 1 0.5142 1 1 1 10 900 566
18 101 0 0.5142 1 0 0 0 900 700
18 102 0 0.5142 1 0 0 0 900 633
18 103 0 0.4545 0 1 0 0 900 550
18 104 0 0.5142 1 0 0 0 900 1100
18 105 0 0.5142 1 0 0 0 900 900
18 106 0 0.4545 0 1 0 0 900 2133
18 107 0 0.5142 1 0 0 0 900 1050
18 108 0 0.4545 0 0 1 10 910 983
18 109 0 0.5142 1 1 1 10 920 950
18 110 0 0.5142 1 0 0 0 920 3316
18 111 0 0.5142 1 1 1 10 930 2700
18 112 0 0.4545 0 0 1 10 940 883
18 113 0 0.4545 0 0 1 10 950 1116
18 114 0 0.5142 1 1 1 10 960 1000
18 115 0 0.5142 1 1 1 10 970 5033
18 116 0 0.4545 0 0 1 10 980 2733
18 117 0 0.4545 0 0 1 10 990 966
18 118 0 0.4545 0 1 0 0 990 800
18 119 0 0.4545 0 0 1 10 1000 983
18 120 0 0.4545 0 0 1 10 1010 566
18 121 0 0.4545 0 0 1 10 1020 600
18 122 0 0.4545 0 0 1 10 1030 550
18 123 0 0.5142 1 0 0 0 1030 650
18 124 0 0.4545 0 0 1 10 1040 1016
18 125 0 0.5142 1 1 1 10 1050 733
18 126 0 0.4545 0 0 1 10 1060 916
18 127 0 0.5142 1 1 1 10 1070 1166
18 128 0 0.5142 1 1 1 10 1080 2150
18 129 0 0.5142 1 1 1 10 1090 1750
18 130 0 0.5142 1 1 1 10 1100 1433
18 131 0 0.4545 0 0 1 10 1110 1100
18 132 0 0.5142 1 1 1 10 1120 1650
18 133 0 0.4545 0 0 1 10 1130 783
18 134 0 0.5142 1 0 0 0 1130 1600
18 135 0 0.4545 0 0 1 10 1140 1133
18 136 0 0.4545 0 0 1 10 1150 2233
18 137 0 0.4545 0 0 1 10 1160 716
18 138 0 0.4545 0 0 1 10 1170 666
18 139 0 0.5142 1 1 1 10 1180 933
18 140 0 0.5142 1 1 1 10 1190 1050
18 141 0 0.4545 0 0 1 10 1200 850
18 142 0 0.5142 1 1 1 10 1210 866
18 143 0 0.4545 0 0 1 10 1220 1250
18 144 0 0.4545 0 1 0 0 1220 1316
18 145 0 0.4545 0 1 0 0 1220 983
18 146 0 0.4545 0 0 1 10 1230 516
18 147 0 0.5142 1 1 1 10 1240 1433
18 148 0 0.4545 0 0 1 10 1250 850
18 149 0 0.5142 1 1 1 10 1260 1133
18 150 0 0.4545 0 0 1 10 1270 1016
18 151 0 0.4545 0 0 1 10 1280 1166
18 152 0 0.4545 0 0 1 10 1290 683
18 153 0 0.4545 0 0 1 10 1300 600
18 154 0 0.5142 1 1 1 10 1310 833
18 155 0 0.4545 0 0 1 10 1320 800
18 156 0 0.4545 0 0 1 10 1330 833
18 157 0 0.4545 0 0 1 10 1340 816
18 158 0 0.4545 0 0 1 10 1350 1216
18 159 0 0.5142 1 1 1 10 1360 733
18 160 0 0.5142 1 1 1 10 1370 1016
18 161 0 0.4545 0 0 1 10 1380 833
18 162 0 0.4545 0 1 0 0 1380 2283
18 163 0 0.4545 0 1 0 0 1380 1083
18 164 0 0.5142 1 1 1 10 1390 1400
18 165 0 0.5142 1 1 1 10 1400 750
18 166 0 0.5142 1 1 1 10 1410 700
18 167 0 0.4545 0 1 0 0 1410 550
18 168 0 0.5142 1 0 0 0 1410 633
18 169 0 0.5142 1 0 0 0 1410 1250
18 170 0 0.5142 1 1 1 10 1420 1333
18 171 0 0.5142 1 1 1 10 1430 1000
18 172 0 0.5142 1 1 1 10 1440 1166
18 173 0 0.5142 1 1 1 10 1450 750
18 174 0 0.4545 0 0 1 10 1460 916
18 175 0 0.4545 0 0 1 10 1470 1516
18 176 0 0.4545 0 0 1 10 1480 916
18 177 0 0.5142 1 1 1 10 1490 833
18 178 0 0.5142 1 1 1 10 1500 2666
18 179 0 0.4545 0 0 1 10 1510 733
18 180 0 0.5142 1 1 1 10 1520 700
18 181 0 0.4545 0 0 1 10 1530 700
18 182 0 0.4545 0 0 1 10 1540 616
18 183 0 0.4545 0 0 1 10 1550 616
18 184 0 0.5142 1 1 1 10 1560 833
18 185 0 0.5142 1 1 1 10 1570 1116
18 186 0 0.5142 1 1 1 10 1580 966
18 187 0 0.5142 1 1 1 10 1590 783
18 188 0 0.5142 1 1 1 10 1600 883
18 189 0 0.5142 1 1 1 10 1610 650
18 190 0 0.4545 0 1 0 0 1610 983
18 191 0 0.5142 1 1 1 10 1620 966
18 192 0 0.4545 0 0 1 10 1630 550
18 193 0 0.5142 1 1 1 10 1640 600
18 194 0 0.4545 0 1 0 0 1640 533
18 195 0 0.5142 1 1 1 10 1650 550
18 196 0 0.5142 1 1 1 10 1660 966
18 197 0 0.4545 0 0 1 10 1670 900
18 198 0 0.5142 1 1 1 10 1680 1300
18 199 0 0.5142 1 1 1 10 1690 800
18 200 0 0.4545 0 0 1 10 1700 616
