SubNo TrialNo Mapping WhiteProp State Resp Acc Reward Balance ReactionTime
4 1 1 0.5123 1 0 0 0 0 2450
4 2 1 0.4913 0 0 1 10 10 1116
4 3 1 0.4913 0 0 1 10 20 1016
4 4 1 0.4913 0 0 1 10 30 833
4 5 1 0.4913 0 0 1 10 40 700
4 6 1 0.5123 1 0 0 0 40 766
4 7 1 0.5123 1 1 1 10 50 1116
4 8 1 0.5123 1 0 0 0 50 1116
4 9 1 0.4913 0 1 0 0 50 1100
4 10 1 0.5123 1 0 0 0 50 1016
4 11 1 0.4913 0 0 1 10 60 1300
4 12 1 0.4913 0 0 1 10 70 1016
4 13 1 0.5123 1 0 0 0 70 900
4 14 1 0.4913 0 0 1 10 80 633
4 15 1 0.5123 1 1 1 10 90 1100
4 16 1 0.5123 1 0 0 0 90 933
4 17 1 0.5123 1 1 1 10 100 950
4 18 1 0.5123 1 0 0 0 100 750
4 19 1 0.4913 0 0 1 10 110 916
4 20 1 0.4913 0 0 1 10 120 1383
4 21 1 0.4913 0 1 0 0 120 1650
4 22 1 0.4913 0 0 1 10 130 966
4 23 1 0.5123 1 1 1 10 140 1100
4 24 1 0.5123 1 0 0 0 140 916
4 25 1 0.5123 1 1 1 10 150 1100
4 26 1 0.4913 0 0 1 10 160 866
4 27 1 0.4913 0 0 1 10 170 950
4 28 1 0.5123 1 1 1 10 180 983
4 29 1 0.5123 1 1 1 10 190 1366
4 30 1 0.5123 1 1 1 10 200 766
4 31 1 0.5123 1 0 0 0 200 1000
4 32 1 0.4913 0 0 1 10 210 800
4 33 1 0.5123 1 1 1 10 220 1083
4 34 1 0.4913 0 0 1 10 230 1150
4 35 1 0.5123 1 1 1 10 240 700
4 36 1 0.4913 0 1 0 0 240 2916
4 37 1 0.4913 0 0 1 10 250 1716
4 38 1 0.5123 1 1 1 10 260 900
4 39 1 0.4913 0 1 0 0 260 3650
4 40 1 0.5123 1 0 0 0 260 900
4 41 1 0.5123 1 0 0 0 260 1016
4 42 1 0.4913 0 1 0 0 260 700
4 43 1 0.5123 1 0 0 0 260 1033
4 44 1 0.5123 1 1 1 10 270 1200
4 45 1 0.4913 0 1 0 0 270 1233
4 46 1 0.5123 1 0 0 0 270 1016
4 47 1 0.4913 0 1 0 0 270 900
4 48 1 0.5123 1 1 1 10 280 1450
4 49 1 0.4913 0 0 1 10 290 666
4 50 1 0.5123 1 1 1 10 300 1033
4 51 1 0.4913 0 0 1 10 310 1183
4 52 1 0.4913 0 1 0 0 310 933
4 53 1 0.4913 0 1 0 0 310 1300
4 54 1 0.5123 1 1 1 10 320 2166
4 55 1 0.4913 0 1 0 0 320 766
4 56 1 0.4913 0 0 1 10 330 1016
4 57 1 0.5123 1 1 1 10 340 733
4 58 1 0.4913 0 1 0 0 340 1616
4 59 1 0.4913 0 0 1 10 350 633
4 60 1 0.4913 0 1 0 0 350 1983
4 61 1 0.4913 0 0 1 10 360 1000
4 62 1 0.4913 0 1 0 0 360 950
4 63 1 0.4913 0 0 1 10 370 1216
4 64 1 0.4913 0 0 1 10 380 700
4 65 1 0.4913 0 0 1 10 390 766
4 66 1 0.5123 1 1 1 10 400 1033
4 67 1 0.4913 0 0 1 10 410 1183
4 68 1 0.5123 1 0 0 0 410 1083
4 69 1 0.5123 1 1 1 10 420 1266
4 70 1 0.5123 1 0 0 0 420 1300
4 71 1 0.4913 0 0 1 10 430 1783
4 72 1 0.5123 1 1 1 10 440 933
4 73 1 0.5123 1 1 1 10 450 916
4 74 1 0.5123 1 1 1 10 460 866
4 75 1 0.4913 0 1 0 0 460 1216
4 76 1 0.5123 1 0 0 0 460 683
4 77 1 0.5123 1 1 1 10 470 916
4 78 1 0.4913 0 1 0 0 470 900
4 79 1 0.4913 0 1 0 0 470 1683
4 80 1 0.5123 1 0 0 0 470 916
4 81 1 0.5123 1 1 1 10 480 1166
4 82 1 0.4913 0 0 1 10 490 1316
4 83 1 0.4913 0 0 1 10 500 1550
4 84 1 0.4913 0 0 1 10 510 1616
4 85 1 0.5123 1 0 0 0 510 1150
4 86 1 0.4913 0 1 0 0 510 900
4 87 1 0.5123 1 0 0 0 510 883
4 88 1 0.5123 1 0 0 0 510 1033
4 89 1 0.5123 1 1 1 10 520 800
4 90 1 0.5123 1 0 0 0 520 966
4 91 1 0.5123 1 0 0 0 520 1133
4 92 1 0.5123 1 1 1 10 530 1716
4 93 1 0.5123 1 0 0 0 530 1833
4 94 1 0.4913 0 1 0 0 530 1216
4 95 1 0.4913 0 1 0 0 530 2100
4 96 1 0.5123 1 0 0 0 530 816
4 97 1 0.5123 1 0 0 0 530 866
4 98 1 0.4913 0 0 1 10 540 1750
4 99 1 0.4913 0 0 1 10 550 700
4 100 1 0.4913 0 0 1 10 560 1150
4 101 0 0.5123 1 0 0 0 560 950
4 102 0 0.5123 1 0 0 0 560 1233
4 103 0 0.5123 1 1 1 10 570 683
4 104 0 0.5123 1 1 1 10 580 783
4 105 0 0.4913 0 1 0 0 580 833
4 106 0 0.4913 0 0 1 10 590 1083
4 107 0 0.4913 0 0 1 10 600 933
4 108 0 0.5123 1 1 1 10 610 1033
4 109 0 0.4913 0 0 1 10 620 900
4 110 0 0.4913 0 0 1 10 630 1066
4 111 0 0.4913 0 0 1 10 640 816
4 112 0 0.5123 1 0 0 0 640 1883
4 113 0 0.4913 0 1 0 0 640 1716
4 114 0 0.5123 1 0 0 0 640 1233
4 115 0 0.4913 0 1 0 0 640 2750
4 116 0 0.5123 1 1 1 10 650 1300
4 117 0 0.5123 1 1 1 10 660 1033
4 118 0 0.5123 1 0 0 0 660 1050
4 119 0 0.4913 0 1 0 0 660 1066
4 120 0 0.5123 1 1 1 10 670 950
4 121 0 0.5123 1 0 0 0 670 950
4 122 0 0.5123 1 0 0 0 670 1050
4 123 0 0.4913 0 0 1 10 680 700
4 124 0 0.4913 0 0 1 10 690 700
4 125 0 0.5123 1 1 1 10 700 1066
4 126 0 0.4913 0 1 0 0 700 1016
4 127 0 0.4913 0 0 1 10 710 1183
4 128 0 0.4913 0 0 1 10 720 716
4 129 0 0.4913 0 0 1 10 730 1133
4 130 0 0.4913 0 1 0 0 730 1500
4 131 0 0.4913 0 0 1 10 740 616
4 132 0 0.5123 1 1 1 10 750 1300
4 133 0 0.5123 1 1 1 10 760 916
4 134 0 0.4913 0 1 0 0 760 1966
4 135 0 0.5123 1 0 0 0 760 700
4 136 0 0.4913 0 0 1 10 770 1000
4 137 0 0.5123 1 1 1 10 780 1266
4 138 0 0.5123 1 1 1 10 790 1083
4 139 0 0.5123 1 1 1 10 800 1350
4 140 0 0.5123 1 1 1 10 810 1016
4 141 0 0.4913 0 0 1 10 820 1333
4 142 0 0.5123 1 0 0 0 820 1333
4 143 0 0.4913 0 0 1 10 830 700
4 144 0 0.5123 1 1 1 10 840 1166
4 145 0 0.4913 0 0 1 10 850 933
4 146 0 0.5123 1 0 0 0 850 1450
4 147 0 0.5123 1 0 0 0 850 766
4 148 0 0.5123 1 1 1 10 860 1083
4 149 0 0.5123 1 1 1 10 870 866
4 150 0 0.5123 1 0 0 0 870 850
4 151 0 0.4913 0 1 0 0 870 1250
4 152 0 0.5123 1 0 0 0 870 800
4 153 0 0.4913 0 1 0 0 870 1050
4 154 0 0.4913 0 0 1 10 880 683
4 155 0 0.4913 0 1 0 0 880 866
4 156 0 0.4913 0 0 1 10 890 616
4 157 0 0.5123 1 1 1 10 900 1283
4 158 0 0.5123 1 1 1 10 910 1100
4 159 0 0.5123 1 1 1 10 920 1183
4 160 0 0.4913 0 1 0 0 920 1466
4 161 0 0.4913 0 1 0 0 920 983
4 162 0 0.5123 1 1 1 10 930 983
4 163 0 0.4913 0 1 0 0 930 1783
4 164 0 0.5123 1 0 0 0 930 966
4 165 0 0.4913 0 0 1 10 940 816
4 166 0 0.4913 0 1 0 0 940 883
4 167 0 0.4913 0 0 1 10 950 766
4 168 0 0.4913 0 0 1 10 960 1583
4 169 0 0.5123 1 1 1 10 970 1383
4 170 0 0.4913 0 1 0 0 970 1500
4 171 0 0.5123 1 0 0 0 970 700
4 172 0 0.5123 1 1 1 10 980 1233
4 173 0 0.4913 0 1 0 0 980 1950
4 174 0 0.5123 1 1 1 10 990 950
4 175 0 0.4913 0 0 1 10 1000 1733
4 176 0 0.5123 1 1 1 10 1010 833
4 177 0 0.5123 1 1 1 10 1020 1150
4 178 0 0.4913 0 0 1 10 1030 733
4 179 0 0.4913 0 0 1 10 1040 1183
4 180 0 0.5123 1 1 1 10 1050 1066
4 181 0 0.4913 0 0 1 10 1060 933
4 182 0 0.5123 1 1 1 10 1070 983
4 183 0 0.5123 1 1 1 10 1080 1050
4 184 0 0.5123 1 1 1 10 1090 716
4 185 0 0.4913 0 1 0 0 1090 1066
4 186 0 0.4913 0 0 1 10 1100 616
4 187 0 0.5123 1 0 0 0 1100 1000
4 188 0 0.4913 0 0 1 10 1110 833
4 189 0 0.5123 1 0 0 0 1110 783
4 190 0 0.4913 0 0 1 10 1120 650
4 191 0 0.5123 1 1 1 10 1130 1183
4 192 0 0.4913 0 1 0 0 1130 866
4 193 0 0.4913 0 1 0 0 1130 900
4 194 0 0.4913 0 0 1 10 1140 816
4 195 0 0.5123 1 1 1 10 1150 1400
4 196 0 0.4913 0 1 0 0 1150 1916
4 197 0 0.5123 1 1 1 10 1160 766
4 198 0 0.4913 0 0 1 10 1170 950
4 199 0 0.4913 0 0 1 10 1180 1850
4 200 0 0.5123 1 0 0 0 1180 1100
